version
10
timestamp,L_value1,L_value2,L_value3,L_value4,R_value1,R_value2,R_value3,R_value4,COP_Left,COP_Right,COP_Front,COP_Back,COP_Left_Front,COP_Left_Back,COP_Right_Front,COP_Right_Back,L_ACC_X,L_ACC_Y,L_ACC_Z,R_ACC_X,R_ACC_Y,R_ACC_Z,L_value1_raw,L_value2_raw,L_value3_raw,L_value4_raw,R_value1_raw,R_value2_raw,R_value3_raw,R_value4_raw
32,34,0,54,88,0,0,0,0,100,0,45,55,45,55,50,50,0,0,0,0,0,0,337.0,24.0,461.0,532.0,53.0,10.0,51.0,0.0
65,36,0,55,88,0,0,0,0,100,0,46,54,46,54,50,50,0,0,0,0,0,0,349.0,25.0,468.0,532.0,39.0,0.0,34.0,0.0
98,37,0,56,88,0,0,0,0,100,0,47,53,47,53,50,50,0,0,0,0,0,0,357.0,27.0,474.0,532.0,27.0,0.0,21.0,0.0
131,41,0,57,87,0,0,0,0,100,0,48,52,48,52,50,50,0,0,0,0,0,0,378.0,28.0,479.0,529.0,18.0,0.0,9.0,0.0
164,44,0,57,87,0,0,0,0,100,0,49,51,49,51,50,50,0,0,0,0,0,0,395.0,28.0,481.0,527.0,9.0,0.0,5.0,0.0
197,46,0,57,87,0,0,0,0,100,0,49,51,49,51,50,50,0,0,0,0,0,0,409.0,28.0,482.0,526.0,4.0,0.0,0.0,0.0
230,48,0,58,86,0,0,0,0,100,0,50,50,50,50,50,50,0,0,0,0,0,0,421.0,31.0,484.0,524.0,0.0,0.0,0.0,0.0
263,49,0,58,86,0,0,0,0,100,0,51,49,51,49,50,50,0,0,0,0,0,0,430.0,29.0,485.0,520.0,0.0,0.0,0.0,0.0
296,52,0,58,85,0,0,0,0,100,0,51,49,51,49,50,50,0,0,0,0,0,0,446.0,35.0,486.0,517.0,0.0,0.0,0.0,0.0
329,54,0,59,84,0,0,0,0,100,0,52,48,52,48,50,50,0,0,0,0,0,0,459.0,32.0,491.0,511.0,0.0,0.0,0.0,0.0
362,56,0,59,83,0,0,0,0,100,0,53,47,53,47,50,50,0,0,0,0,0,0,472.0,36.0,492.0,506.0,0.0,0.0,0.0,0.0
395,58,0,60,80,0,0,0,0,100,0,55,45,55,45,50,50,0,0,0,0,0,0,484.0,36.0,496.0,492.0,0.0,0.0,0.0,0.0
428,60,0,60,79,0,0,0,0,100,0,55,45,55,45,50,50,0,0,0,0,0,0,495.0,39.0,501.0,486.0,0.0,0.0,0.0,0.0
461,61,0,61,77,0,0,0,0,100,0,56,44,56,44,50,50,0,0,0,0,0,0,507.0,40.0,502.0,479.0,0.0,0.0,0.0,0.0
494,62,0,61,76,0,0,0,0,100,0,57,43,57,43,50,50,0,0,0,0,0,0,512.0,41.0,507.0,470.0,0.0,0.0,0.0,0.0
527,63,0,62,75,0,0,0,0,100,0,58,42,58,42,50,50,0,0,0,0,0,0,514.0,40.0,509.0,465.0,0.0,0.0,0.0,0.0
560,63,0,62,73,0,0,0,0,100,0,58,42,58,42,50,50,0,0,0,0,0,0,518.0,41.0,512.0,458.0,0.0,0.0,0.0,0.0
593,64,0,62,72,0,0,0,0,100,0,59,41,59,41,50,50,0,0,0,0,0,0,523.0,43.0,513.0,450.0,0.0,0.0,0.0,0.0
626,64,0,63,71,0,0,0,0,100,0,59,41,59,41,50,50,0,0,0,0,0,0,522.0,44.0,515.0,445.0,0.0,0.0,0.0,0.0
659,65,0,62,68,0,0,0,0,100,0,60,40,60,40,50,50,0,0,0,0,0,0,527.0,47.0,513.0,434.0,0.0,0.0,0.0,0.0
692,65,0,63,66,0,0,0,0,100,0,61,39,61,39,50,50,0,0,0,0,0,0,530.0,49.0,516.0,421.0,0.0,0.0,0.0,0.0
725,65,0,63,62,0,0,0,0,100,0,63,37,63,37,50,50,0,0,0,0,0,0,532.0,50.0,516.0,402.0,0.0,0.0,0.0,0.0
758,66,0,63,56,0,0,0,0,100,0,65,35,65,35,50,50,0,0,0,0,0,0,535.0,55.0,515.0,374.0,7.0,0.0,0.0,0.0
791,67,0,63,47,0,0,0,0,100,0,69,31,69,31,50,50,0,0,0,0,0,0,540.0,52.0,515.0,325.0,21.0,0.0,0.0,0.0
824,67,0,63,30,0,0,0,0,100,0,78,22,78,22,50,50,0,0,0,0,0,0,544.0,60.0,518.0,242.0,35.0,5.0,17.0,0.0
857,68,0,63,11,0,0,0,0,100,0,90,10,90,10,50,50,0,0,0,0,0,0,551.0,67.0,514.0,147.0,39.0,22.0,40.0,0.0
890,69,0,62,0,0,0,0,0,100,0,100,0,100,0,50,50,0,0,0,0,0,0,556.0,71.0,511.0,43.0,51.0,38.0,79.0,0.0
923,70,0,61,0,0,0,1,0,99,1,100,0,100,0,100,0,0,0,0,0,0,0,560.0,74.0,506.0,0.0,53.0,58.0,128.0,0.0
956,71,0,60,0,0,0,11,0,92,8,100,0,100,0,100,0,0,0,0,0,0,0,566.0,82.0,498.0,0.0,57.0,74.0,190.0,0.0
989,71,0,59,0,0,0,20,0,86,14,100,0,100,0,100,0,0,0,0,0,0,0,565.0,88.0,491.0,0.0,65.0,95.0,249.0,4.0
1022,72,0,57,0,0,0,27,0,82,18,100,0,100,0,100,0,0,0,0,0,0,0,570.0,89.0,477.0,0.0,76.0,110.0,294.0,10.0
1055,71,0,53,0,0,0,32,0,79,21,100,0,100,0,100,0,0,0,0,0,0,0,568.0,94.0,456.0,0.0,92.0,118.0,326.0,27.0
1088,69,0,48,0,0,0,37,0,75,25,99,1,100,0,99,1,0,0,0,0,0,0,557.0,89.0,425.0,0.0,115.0,124.0,356.0,91.0
1121,64,0,42,0,2,1,41,15,64,36,89,11,100,0,71,29,0,0,0,0,0,0,520.0,72.0,385.0,0.0,138.0,128.0,379.0,165.0
1154,53,0,33,0,5,2,44,30,50,50,79,21,100,0,58,42,0,0,0,0,0,0,457.0,49.0,332.0,0.0,156.0,134.0,401.0,241.0
1187,37,0,23,0,10,3,48,41,37,63,71,29,100,0,54,46,0,0,0,0,0,0,354.0,31.0,265.0,0.0,187.0,142.0,426.0,296.0
1220,22,0,12,0,15,3,51,45,23,77,65,35,100,0,55,45,0,0,0,0,0,0,262.0,26.0,196.0,0.0,216.0,144.0,443.0,318.0
1253,16,0,2,0,20,5,55,47,12,88,63,37,100,0,57,43,0,0,0,0,0,0,220.0,24.0,136.0,0.0,246.0,156.0,465.0,326.0
1286,9,0,0,0,24,6,56,45,7,93,63,37,100,0,60,40,0,0,0,0,0,0,182.0,17.0,111.0,0.0,276.0,161.0,476.0,318.0
1319,4,0,0,0,28,7,59,42,3,97,65,35,100,0,63,37,0,0,0,0,0,0,150.0,9.0,98.0,0.0,300.0,166.0,490.0,304.0
1352,0,0,0,0,32,8,59,40,0,100,66,34,50,50,66,34,0,0,0,0,0,0,121.0,5.0,90.0,0.0,322.0,173.0,493.0,290.0
1385,0,0,0,0,34,9,60,38,0,100,68,32,50,50,67,33,0,0,0,0,0,0,108.0,4.0,86.0,0.0,335.0,179.0,499.0,280.0
1418,0,0,0,0,36,9,61,37,0,100,69,31,50,50,68,32,0,0,0,0,0,0,99.0,5.0,79.0,0.0,346.0,181.0,506.0,278.0
1451,0,0,0,0,36,9,61,37,0,100,69,31,50,50,68,32,0,0,0,0,0,0,91.0,4.0,76.0,0.0,347.0,180.0,506.0,278.0
1484,0,0,0,0,36,9,62,39,0,100,68,32,50,50,67,33,0,0,0,0,0,0,85.0,0.0,74.0,0.0,349.0,182.0,509.0,288.0
1517,0,0,0,0,36,9,61,41,0,100,67,33,50,50,67,33,0,0,0,0,0,0,77.0,1.0,69.0,0.0,349.0,180.0,507.0,295.0
1550,0,0,0,0,36,8,61,43,0,100,66,34,50,50,65,35,0,0,0,0,0,0,71.0,0.0,64.0,0.0,347.0,174.0,506.0,306.0
1583,0,0,0,0,35,8,61,43,0,100,66,34,50,50,65,35,0,0,0,0,0,0,68.0,0.0,61.0,0.0,342.0,175.0,506.0,308.0
1616,0,0,0,0,34,8,61,45,0,100,64,36,50,50,64,36,0,0,0,0,0,0,64.0,0.0,59.0,0.0,334.0,172.0,506.0,318.0
1649,0,0,0,0,32,7,61,50,0,100,62,38,50,50,61,39,0,0,0,0,0,0,63.0,0.0,57.0,0.0,325.0,166.0,503.0,340.0
1682,0,0,0,0,30,6,60,53,0,100,59,41,50,50,59,41,0,0,0,0,0,0,60.0,0.0,53.0,0.0,313.0,162.0,500.0,358.0
1715,0,0,0,0,28,5,59,59,0,100,56,44,50,50,55,45,0,0,0,0,0,0,56.0,0.0,52.0,0.0,301.0,157.0,491.0,386.0
1748,0,0,0,0,26,5,57,64,0,100,52,48,50,50,52,48,0,0,0,0,0,0,55.0,0.0,51.0,0.0,285.0,152.0,480.0,413.0
1781,0,0,0,0,24,3,55,69,0,100,49,51,50,50,49,51,0,0,0,0,0,0,57.0,0.0,54.0,0.0,270.0,140.0,468.0,437.0
1814,0,0,0,0,21,1,53,72,0,100,46,54,50,50,46,54,0,0,0,0,0,0,68.0,0.0,63.0,0.0,252.0,128.0,453.0,451.0
1847,0,0,0,0,18,0,51,75,0,100,43,57,50,50,43,57,0,0,0,0,0,0,80.0,5.0,96.0,0.0,237.0,120.0,442.0,466.0
1880,0,0,2,0,15,0,48,74,1,99,42,58,100,0,41,59,0,0,0,0,0,0,96.0,11.0,133.0,0.0,219.0,108.0,424.0,462.0
1913,0,0,8,0,13,0,45,72,5,95,43,57,100,0,40,60,0,0,0,0,0,0,108.0,8.0,171.0,0.0,204.0,101.0,406.0,451.0
1946,0,0,11,0,11,0,42,68,8,92,44,56,100,0,39,61,0,0,0,0,0,0,119.0,9.0,193.0,0.0,192.0,96.0,383.0,434.0
1979,0,0,15,0,10,0,37,62,12,88,45,55,100,0,38,62,0,0,0,0,0,0,123.0,9.0,214.0,0.0,183.0,89.0,352.0,400.0
2012,0,0,18,0,8,0,33,54,16,84,48,52,100,0,39,61,0,0,0,0,0,0,124.0,8.0,236.0,0.0,173.0,86.0,330.0,360.0
2045,0,0,21,0,6,0,29,41,22,78,53,47,100,0,41,59,0,0,0,0,0,0,124.0,6.0,257.0,54.0,163.0,85.0,303.0,298.0
2078,0,0,25,25,4,0,25,22,49,51,49,51,45,55,53,47,0,0,0,0,0,0,126.0,3.0,277.0,219.0,151.0,77.0,277.0,200.0
2111,1,0,30,53,3,0,19,0,79,21,45,55,32,68,100,0,0,0,0,0,0,0,129.0,6.0,309.0,359.0,139.0,68.0,242.0,78.0
2144,2,0,36,69,0,0,11,0,90,10,37,63,31,69,100,0,0,0,0,0,0,0,135.0,4.0,351.0,439.0,123.0,57.0,191.0,44.0
2177,3,0,42,80,0,0,3,0,97,3,34,66,32,68,100,0,0,0,0,0,0,0,142.0,2.0,388.0,490.0,100.0,42.0,142.0,44.0
2210,4,0,48,87,0,0,0,0,100,0,33,67,33,67,50,50,0,0,0,0,0,0,151.0,1.0,422.0,527.0,79.0,29.0,93.0,33.0
2243,6,0,52,91,0,0,0,0,100,0,35,65,35,65,50,50,0,0,0,0,0,0,161.0,0.0,450.0,546.0,57.0,14.0,62.0,27.0
2276,8,0,56,92,0,0,0,0,100,0,36,64,36,64,50,50,0,0,0,0,0,0,173.0,0.0,472.0,550.0,39.0,1.0,43.0,15.0
2309,9,0,58,92,0,0,0,0,100,0,38,62,38,62,50,50,0,0,0,0,0,0,182.0,0.0,485.0,552.0,26.0,0.0,24.0,5.0
2342,10,0,59,91,0,0,0,0,100,0,38,62,38,62,50,50,0,0,0,0,0,0,188.0,0.0,493.0,549.0,17.0,0.0,12.0,0.0
2375,11,0,60,91,0,0,0,0,100,0,39,61,39,61,50,50,0,0,0,0,0,0,191.0,0.0,496.0,548.0,9.0,0.0,5.0,0.0
2408,11,0,60,91,0,0,0,0,100,0,39,61,39,61,50,50,0,0,0,0,0,0,192.0,0.0,497.0,545.0,4.0,0.0,0.0,0.0
2441,11,0,60,91,0,0,0,0,100,0,39,61,39,61,50,50,0,0,0,0,0,0,190.0,0.0,497.0,545.0,1.0,0.0,0.0,0.0
2474,10,0,60,91,0,0,0,0,100,0,38,62,38,62,50,50,0,0,0,0,0,0,185.0,0.0,496.0,549.0,6.0,0.0,0.0,0.0
2507,9,0,60,93,0,0,0,0,100,0,38,62,38,62,50,50,0,0,0,0,0,0,182.0,0.0,495.0,557.0,0.0,0.0,0.0,0.0
2540,8,0,59,93,0,0,0,0,100,0,37,63,37,63,50,50,0,0,0,0,0,0,174.0,0.0,494.0,558.0,0.0,0.0,0.0,0.0
2573,7,0,59,94,0,0,0,0,100,0,37,63,37,63,50,50,0,0,0,0,0,0,169.0,0.0,494.0,562.0,0.0,0.0,0.0,0.0
2606,7,0,60,94,0,0,0,0,100,0,37,63,37,63,50,50,0,0,0,0,0,0,166.0,0.0,495.0,561.0,0.0,0.0,0.0,0.0
2639,7,0,59,94,0,0,0,0,100,0,37,63,37,63,50,50,0,0,0,0,0,0,164.0,0.0,494.0,562.0,0.0,0.0,0.0,0.0
2672,6,0,60,94,0,0,0,0,100,0,36,64,36,64,50,50,0,0,0,0,0,0,158.0,0.0,496.0,560.0,0.0,0.0,0.0,0.0
2705,5,0,60,93,0,0,0,0,100,0,36,64,36,64,50,50,0,0,0,0,0,0,156.0,0.0,496.0,558.0,0.0,0.0,0.0,0.0
2738,5,0,60,93,0,0,0,0,100,0,36,64,36,64,50,50,0,0,0,0,0,0,154.0,0.0,496.0,557.0,0.0,0.0,0.0,0.0
2771,5,0,59,93,0,0,0,0,100,0,36,64,36,64,50,50,0,0,0,0,0,0,156.0,0.0,494.0,557.0,0.0,0.0,0.0,0.0
2804,5,0,59,93,0,0,0,0,100,0,36,64,36,64,50,50,0,0,0,0,0,0,152.0,0.0,494.0,556.0,0.0,0.0,0.0,0.0
2837,4,0,59,92,0,0,0,0,100,0,36,64,36,64,50,50,0,0,0,0,0,0,151.0,0.0,492.0,554.0,0.0,0.0,0.0,0.0
2870,4,0,58,91,0,0,0,0,100,0,36,64,36,64,50,50,0,0,0,0,0,0,147.0,0.0,487.0,545.0,0.0,0.0,0.0,0.0
2903,3,0,57,88,0,0,0,0,100,0,36,64,36,64,50,50,0,0,0,0,0,0,144.0,0.0,478.0,530.0,9.0,0.0,0.0,0.0
2936,3,0,55,82,0,0,0,0,100,0,37,63,37,63,50,50,0,0,0,0,0,0,141.0,0.0,464.0,502.0,20.0,0.0,0.0,0.0
2969,2,0,52,75,0,0,0,0,100,0,37,63,37,63,50,50,0,0,0,0,0,0,137.0,0.0,448.0,467.0,39.0,0.0,22.0,7.0
3002,2,0,49,65,0,0,0,0,100,0,39,61,39,61,50,50,0,0,0,0,0,0,134.0,0.0,427.0,418.0,55.0,0.0,51.0,47.0
3035,1,0,45,49,0,0,0,9,91,9,39,61,43,57,0,100,0,0,0,0,0,0,128.0,0.0,404.0,339.0,72.0,13.0,87.0,136.0
3068,0,0,40,24,0,0,0,32,66,34,37,63,58,42,0,100,0,0,0,0,0,0,121.0,0.0,373.0,210.0,95.0,31.0,122.0,254.0
3101,0,0,33,0,0,0,7,55,34,66,38,62,100,0,10,90,0,0,0,0,0,0,110.0,0.0,331.0,59.0,115.0,50.0,169.0,369.0
3134,0,0,25,0,2,0,15,68,22,78,34,66,100,0,18,82,0,0,0,0,0,0,98.0,0.0,280.0,87.0,136.0,67.0,219.0,433.0
3167,0,0,15,0,4,0,23,75,13,87,32,68,100,0,23,77,0,0,0,0,0,0,89.0,0.0,219.0,57.0,151.0,80.0,268.0,465.0
3200,0,0,4,0,8,0,31,78,3,97,32,68,100,0,29,71,0,0,0,0,0,0,80.0,0.0,148.0,32.0,174.0,93.0,316.0,480.0
3233,0,0,0,0,11,0,36,77,0,100,33,67,50,50,33,67,0,0,0,0,0,0,69.0,0.0,103.0,12.0,189.0,101.0,349.0,479.0
3266,0,0,0,0,14,0,40,77,0,100,37,63,50,50,37,63,0,0,0,0,0,0,59.0,0.0,90.0,7.0,210.0,112.0,374.0,477.0
3299,0,0,0,0,16,0,43,76,0,100,39,61,50,50,39,61,0,0,0,0,0,0,55.0,0.0,80.0,2.0,221.0,117.0,393.0,472.0
3332,0,0,0,0,18,0,46,75,0,100,41,59,50,50,41,59,0,0,0,0,0,0,50.0,0.0,75.0,0.0,233.0,125.0,409.0,467.0
3365,0,0,0,0,19,1,48,74,0,100,43,57,50,50,43,57,0,0,0,0,0,0,48.0,0.0,69.0,0.0,239.0,130.0,424.0,461.0
3398,0,0,0,0,19,1,49,73,0,100,44,56,50,50,44,56,0,0,0,0,0,0,47.0,0.0,65.0,0.0,241.0,128.0,429.0,455.0
3431,0,0,0,0,20,1,50,73,0,100,44,56,50,50,44,56,0,0,0,0,0,0,46.0,0.0,61.0,0.0,245.0,132.0,434.0,457.0
3464,0,0,0,0,19,1,50,74,0,100,44,56,50,50,43,57,0,0,0,0,0,0,43.0,0.0,56.0,0.0,241.0,130.0,437.0,462.0
3497,0,0,0,0,19,1,51,76,0,100,44,56,50,50,43,57,0,0,0,0,0,0,39.0,0.0,52.0,0.0,241.0,131.0,444.0,470.0
3530,0,0,0,0,19,1,52,75,0,100,44,56,50,50,44,56,0,0,0,0,0,0,39.0,0.0,46.0,0.0,241.0,129.0,445.0,466.0
3563,0,0,0,0,19,2,52,75,0,100,44,56,50,50,44,56,0,0,0,0,0,0,36.0,0.0,46.0,0.0,243.0,133.0,449.0,467.0
3596,0,0,0,0,19,1,52,75,0,100,44,56,50,50,44,56,0,0,0,0,0,0,34.0,0.0,44.0,0.0,244.0,132.0,448.0,467.0
3629,0,0,0,0,20,2,53,76,0,100,44,56,50,50,44,56,0,0,0,0,0,0,32.0,0.0,39.0,0.0,246.0,134.0,452.0,470.0
3662,0,0,0,0,20,1,52,76,0,100,44,56,50,50,44,56,0,0,0,0,0,0,29.0,0.0,36.0,0.0,245.0,132.0,446.0,471.0
3695,0,0,0,0,20,2,52,77,0,100,44,56,50,50,43,57,0,0,0,0,0,0,31.0,0.0,33.0,0.0,245.0,134.0,447.0,476.0
3728,0,0,0,0,19,1,50,78,0,100,43,57,50,50,42,58,0,0,0,0,0,0,30.0,0.0,36.0,0.0,244.0,130.0,437.0,483.0
3761,0,0,0,0,18,1,49,80,0,100,41,59,50,50,41,59,0,0,0,0,0,0,35.0,0.0,38.0,0.0,238.0,128.0,432.0,490.0
3794,0,0,0,0,18,1,49,81,0,100,41,59,50,50,40,60,0,0,0,0,0,0,40.0,0.0,40.0,0.0,235.0,127.0,427.0,496.0
3827,0,0,0,0,17,0,47,81,0,100,40,60,50,50,40,60,0,0,0,0,0,0,48.0,0.0,56.0,0.0,230.0,125.0,419.0,498.0
3860,0,0,0,0,16,0,46,81,0,100,39,61,50,50,39,61,0,0,0,0,0,0,61.0,0.0,88.0,0.0,226.0,123.0,411.0,498.0
3893,0,0,0,0,15,0,44,80,0,100,38,62,50,50,38,62,0,0,0,0,0,0,73.0,0.0,121.0,0.0,219.0,120.0,398.0,491.0
3926,0,0,5,0,15,0,42,78,4,96,40,60,100,0,38,62,0,0,0,0,0,0,87.0,2.0,157.0,0.0,216.0,119.0,387.0,480.0
3959,0,0,11,0,14,0,39,74,8,92,42,58,100,0,37,63,0,0,0,0,0,0,100.0,4.0,194.0,0.0,211.0,117.0,369.0,460.0
3992,0,0,16,0,13,0,36,66,12,88,45,55,100,0,38,62,0,0,0,0,0,0,108.0,5.0,220.0,0.0,203.0,113.0,351.0,420.0
4025,0,0,19,0,12,0,34,55,16,84,50,50,100,0,41,59,0,0,0,0,0,0,111.0,3.0,244.0,11.0,199.0,112.0,334.0,366.0
4058,0,0,24,0,11,0,31,39,22,78,58,42,100,0,46,54,0,0,0,0,0,0,110.0,3.0,270.0,56.0,189.0,110.0,315.0,289.0
4091,0,0,28,19,9,0,28,20,44,56,57,43,54,46,60,40,0,0,0,0,0,0,113.0,2.0,297.0,189.0,182.0,108.0,299.0,194.0
4124,0,0,34,43,8,0,24,0,69,31,56,44,39,61,100,0,0,0,0,0,0,0,118.0,4.0,333.0,306.0,174.0,102.0,274.0,77.0
4157,0,0,40,59,5,0,16,0,81,19,47,53,36,64,100,0,0,0,0,0,0,0,126.0,3.0,374.0,389.0,156.0,89.0,226.0,5.0
4190,2,0,47,71,2,0,8,0,92,8,41,59,36,64,100,0,0,0,0,0,0,0,137.0,6.0,416.0,445.0,133.0,68.0,170.0,34.0
4223,5,0,53,78,0,0,0,0,100,0,38,62,38,62,50,50,0,0,0,0,0,0,154.0,6.0,455.0,480.0,107.0,45.0,119.0,30.0
4256,7,0,57,82,0,0,0,0,100,0,39,61,39,61,50,50,0,0,0,0,0,0,164.0,4.0,482.0,501.0,79.0,26.0,75.0,25.0
4289,8,0,61,85,0,0,0,0,100,0,40,60,40,60,50,50,0,0,0,0,0,0,173.0,4.0,503.0,515.0,56.0,9.0,54.0,18.0
4322,9,0,63,85,0,0,0,0,100,0,41,59,41,59,50,50,0,0,0,0,0,0,181.0,4.0,517.0,516.0,38.0,3.0,34.0,10.0
4355,10,0,65,84,0,0,0,0,100,0,42,58,42,58,50,50,0,0,0,0,0,0,186.0,5.0,529.0,510.0,27.0,0.0,22.0,2.0
4388,11,0,66,82,0,0,0,0,100,0,43,57,43,57,50,50,0,0,0,0,0,0,191.0,5.0,534.0,502.0,17.0,0.0,9.0,0.0
4421,11,0,66,81,0,0,0,0,100,0,44,56,44,56,50,50,0,0,0,0,0,0,192.0,5.0,538.0,495.0,10.0,0.0,4.0,0.0
4454,11,0,67,80,0,0,0,0,100,0,44,56,44,56,50,50,0,0,0,0,0,0,189.0,4.0,541.0,493.0,6.0,0.0,0.0,0.0
4487,11,0,66,80,0,0,0,0,100,0,44,56,44,56,50,50,0,0,0,0,0,0,189.0,4.0,538.0,493.0,2.0,0.0,0.0,0.0
4520,10,0,67,81,0,0,0,0,100,0,44,56,44,56,50,50,0,0,0,0,0,0,185.0,4.0,540.0,499.0,1.0,0.0,0.0,0.0
4553,9,0,66,83,0,0,0,0,100,0,43,57,43,57,50,50,0,0,0,0,0,0,177.0,3.0,538.0,508.0,0.0,0.0,0.0,0.0
4586,8,0,67,84,0,0,0,0,100,0,42,58,42,58,50,50,0,0,0,0,0,0,172.0,4.0,540.0,514.0,0.0,0.0,0.0,0.0
4619,7,0,66,85,0,0,0,0,100,0,41,59,41,59,50,50,0,0,0,0,0,0,169.0,5.0,537.0,519.0,0.0,0.0,0.0,0.0
4652,7,0,66,86,0,0,0,0,100,0,41,59,41,59,50,50,0,0,0,0,0,0,165.0,3.0,535.0,521.0,0.0,0.0,0.0,0.0
4685,6,0,66,86,0,0,0,0,100,0,41,59,41,59,50,50,0,0,0,0,0,0,163.0,4.0,534.0,524.0,0.0,0.0,0.0,0.0
4718,6,0,65,87,0,0,0,0,100,0,40,60,40,60,50,50,0,0,0,0,0,0,160.0,4.0,532.0,525.0,0.0,0.0,0.0,0.0
4751,6,0,65,87,0,0,0,0,100,0,40,60,40,60,50,50,0,0,0,0,0,0,158.0,2.0,528.0,526.0,0.0,0.0,0.0,0.0
4784,5,0,65,87,0,0,0,0,100,0,40,60,40,60,50,50,0,0,0,0,0,0,157.0,3.0,530.0,525.0,0.0,0.0,0.0,0.0
4817,5,0,65,86,0,0,0,0,100,0,40,60,40,60,50,50,0,0,0,0,0,0,154.0,5.0,527.0,524.0,0.0,0.0,0.0,0.0
4850,5,0,65,86,0,0,0,0,100,0,40,60,40,60,50,50,0,0,0,0,0,0,153.0,3.0,527.0,520.0,0.0,0.0,0.0,0.0
4883,4,0,64,84,0,0,0,0,100,0,40,60,40,60,50,50,0,0,0,0,0,0,151.0,4.0,521.0,511.0,4.0,0.0,0.0,0.0
4916,4,0,63,79,0,0,0,0,100,0,41,59,41,59,50,50,0,0,0,0,0,0,148.0,2.0,514.0,489.0,18.0,0.0,0.0,0.0
4949,4,0,62,72,0,0,0,0,100,0,43,57,43,57,50,50,0,0,0,0,0,0,145.0,5.0,508.0,453.0,32.0,0.0,11.0,0.0
4982,3,0,60,62,0,0,0,0,100,0,46,54,46,54,50,50,0,0,0,0,0,0,142.0,3.0,497.0,400.0,44.0,5.0,33.0,0.0
5015,3,0,58,47,0,0,0,0,100,0,52,48,52,48,50,50,0,0,0,0,0,0,140.0,4.0,483.0,325.0,63.0,17.0,66.0,14.0
5048,2,0,56,25,0,0,0,0,100,0,66,34,66,34,50,50,0,0,0,0,0,0,133.0,5.0,475.0,216.0,73.0,28.0,96.0,85.0
5081,1,0,53,0,0,0,2,22,69,31,68,32,100,0,7,93,0,0,0,0,0,0,129.0,3.0,457.0,73.0,85.0,34.0,134.0,202.0
5114,0,0,49,0,0,0,9,49,48,52,49,51,100,0,13,87,0,0,0,0,0,0,120.0,3.0,430.0,53.0,96.0,42.0,178.0,337.0
5147,0,0,42,0,0,0,17,68,33,67,42,58,100,0,17,83,0,0,0,0,0,0,109.0,1.0,384.0,50.0,108.0,46.0,229.0,431.0
5180,0,0,32,0,0,0,23,79,23,77,36,64,100,0,19,81,0,0,0,0,0,0,93.0,0.0,320.0,32.0,113.0,52.0,266.0,489.0
5213,0,0,20,0,0,0,26,86,14,86,30,70,100,0,20,80,0,0,0,0,0,0,80.0,0.0,246.0,18.0,122.0,61.0,286.0,524.0
5246,0,0,5,0,1,0,28,91,4,96,24,76,100,0,21,79,0,0,0,0,0,0,66.0,0.0,154.0,10.0,127.0,66.0,299.0,545.0
5279,0,0,0,0,1,0,30,92,0,100,22,78,50,50,22,78,0,0,0,0,0,0,52.0,0.0,110.0,3.0,132.0,76.0,310.0,553.0
5312,0,0,0,0,2,0,31,92,0,100,23,77,50,50,23,77,0,0,0,0,0,0,47.0,0.0,94.0,0.0,136.0,75.0,317.0,554.0
5345,0,0,0,0,3,0,33,92,0,100,25,75,50,50,25,75,0,0,0,0,0,0,45.0,0.0,83.0,0.0,144.0,79.0,329.0,552.0
5378,0,0,0,0,3,0,33,92,0,100,25,75,50,50,25,75,0,0,0,0,0,0,42.0,0.0,79.0,0.0,143.0,79.0,331.0,554.0
5411,0,0,0,0,4,0,34,93,0,100,25,75,50,50,25,75,0,0,0,0,0,0,39.0,0.0,71.0,0.0,149.0,85.0,333.0,556.0
5444,0,0,0,0,5,0,35,93,0,100,26,74,50,50,26,74,0,0,0,0,0,0,38.0,0.0,66.0,0.0,152.0,84.0,341.0,557.0
5477,0,0,0,0,4,0,36,93,0,100,26,74,50,50,26,74,0,0,0,0,0,0,37.0,0.0,61.0,0.0,151.0,85.0,345.0,557.0
5510,0,0,0,0,5,0,36,93,0,100,27,73,50,50,27,73,0,0,0,0,0,0,36.0,0.0,55.0,0.0,156.0,85.0,348.0,558.0
5543,0,0,0,0,5,0,36,94,0,100,27,73,50,50,27,73,0,0,0,0,0,0,35.0,0.0,53.0,0.0,155.0,81.0,347.0,560.0
5576,0,0,0,0,5,0,36,95,0,100,27,73,50,50,27,73,0,0,0,0,0,0,30.0,0.0,50.0,0.0,157.0,79.0,348.0,565.0
5609,0,0,0,0,6,0,36,95,0,100,27,73,50,50,27,73,0,0,0,0,0,0,31.0,0.0,47.0,0.0,158.0,75.0,350.0,569.0
5642,0,0,0,0,5,0,35,96,0,100,26,74,50,50,26,74,0,0,0,0,0,0,29.0,0.0,45.0,0.0,157.0,72.0,344.0,570.0
5675,0,0,0,0,5,0,35,96,0,100,26,74,50,50,26,74,0,0,0,0,0,0,27.0,0.0,41.0,0.0,156.0,67.0,343.0,572.0
5708,0,0,0,0,6,0,34,97,0,100,25,75,50,50,25,75,0,0,0,0,0,0,27.0,0.0,38.0,0.0,158.0,64.0,338.0,575.0
5741,0,0,0,0,5,0,33,97,0,100,25,75,50,50,25,75,0,0,0,0,0,0,28.0,0.0,34.0,0.0,157.0,57.0,331.0,579.0
5774,0,0,0,0,5,0,32,98,0,100,24,76,50,50,24,76,0,0,0,0,0,0,25.0,0.0,33.0,0.0,153.0,50.0,323.0,584.0
5807,0,0,0,0,4,0,30,99,0,100,22,78,50,50,22,78,0,0,0,0,0,0,24.0,0.0,32.0,0.0,149.0,44.0,309.0,587.0
5840,0,0,0,0,4,0,29,99,0,100,22,78,50,50,22,78,0,0,0,0,0,0,26.0,0.0,35.0,0.0,149.0,40.0,302.0,585.0
5873,0,0,0,0,4,0,27,97,0,100,21,79,50,50,21,79,0,0,0,0,0,0,34.0,0.0,44.0,0.0,146.0,37.0,292.0,578.0
5906,0,0,0,0,3,0,24,94,0,100,20,80,50,50,20,80,0,0,0,0,0,0,47.0,0.0,73.0,0.0,143.0,34.0,276.0,560.0
5939,0,0,0,0,3,0,21,87,0,100,19,81,50,50,19,81,0,0,0,0,0,0,56.0,0.0,119.0,5.0,142.0,34.0,254.0,529.0
5972,0,0,6,0,3,0,18,78,5,95,22,78,100,0,18,82,0,0,0,0,0,0,63.0,0.0,161.0,36.0,140.0,34.0,235.0,484.0
6005,0,0,13,10,2,0,14,66,22,78,24,76,50,50,16,84,0,0,0,0,0,0,69.0,0.0,203.0,143.0,133.0,30.0,209.0,423.0
6038,0,0,19,40,1,0,10,51,49,51,21,79,28,72,15,85,0,0,0,0,0,0,74.0,0.0,240.0,294.0,128.0,30.0,184.0,346.0
6071,0,0,24,61,0,0,5,27,72,28,21,79,24,76,14,86,0,0,0,0,0,0,80.0,0.0,274.0,399.0,121.0,30.0,156.0,228.0
6104,0,0,31,75,0,0,1,0,98,2,26,74,25,75,100,0,0,0,0,0,0,0,83.0,0.0,314.0,467.0,111.0,27.0,128.0,70.0
6137,0,0,36,85,0,0,0,0,100,0,26,74,26,74,50,50,0,0,0,0,0,0,88.0,0.0,351.0,517.0,85.0,19.0,88.0,52.0
6170,0,0,42,92,0,0,0,0,100,0,27,73,27,73,50,50,0,0,0,0,0,0,94.0,0.0,387.0,550.0,64.0,11.0,61.0,56.0
6203,0,0,47,95,0,0,0,0,100,0,29,71,29,71,50,50,0,0,0,0,0,0,94.0,0.0,418.0,566.0,42.0,3.0,47.0,41.0
6236,0,0,50,96,0,0,0,0,100,0,30,70,30,70,50,50,0,0,0,0,0,0,99.0,0.0,437.0,573.0,25.0,0.0,28.0,24.0
6269,0,0,52,96,0,0,0,0,100,0,31,69,31,69,50,50,0,0,0,0,0,0,99.0,0.0,451.0,574.0,18.0,0.0,16.0,10.0
6302,0,0,54,97,0,0,0,0,100,0,32,68,32,68,50,50,0,0,0,0,0,0,101.0,0.0,463.0,575.0,12.0,0.0,10.0,2.0
6335,0,0,56,96,0,0,0,0,100,0,32,68,32,68,50,50,0,0,0,0,0,0,100.0,0.0,474.0,573.0,5.0,0.0,3.0,0.0
6368,0,0,57,95,0,0,0,0,100,0,33,67,33,67,50,50,0,0,0,0,0,0,103.0,0.0,482.0,568.0,4.0,0.0,2.0,0.0
6401,0,0,59,95,0,0,0,0,100,0,34,66,34,66,50,50,0,0,0,0,0,0,104.0,0.0,490.0,565.0,0.0,0.0,0.0,0.0
6434,0,0,60,93,0,0,0,0,100,0,34,66,34,66,50,50,0,0,0,0,0,0,107.0,0.0,495.0,557.0,0.0,0.0,0.0,0.0
6467,0,0,60,91,0,0,0,0,100,0,35,65,35,65,50,50,0,0,0,0,0,0,110.0,0.0,498.0,548.0,0.0,0.0,0.0,0.0
6500,0,0,61,91,0,0,0,0,100,0,35,65,35,65,50,50,0,0,0,0,0,0,113.0,0.0,503.0,547.0,0.0,0.0,0.0,0.0
6533,0,0,61,90,0,0,0,0,100,0,36,64,36,64,50,50,0,0,0,0,0,0,117.0,0.0,506.0,543.0,0.0,0.0,0.0,0.0
6566,0,0,62,90,0,0,0,0,100,0,36,64,36,64,50,50,0,0,0,0,0,0,117.0,0.0,509.0,542.0,0.0,0.0,0.0,0.0
6599,0,0,61,91,0,0,0,0,100,0,36,64,36,64,50,50,0,0,0,0,0,0,121.0,0.0,507.0,545.0,0.0,0.0,0.0,0.0
6632,0,0,62,91,0,0,0,0,100,0,36,64,36,64,50,50,0,0,0,0,0,0,120.0,0.0,508.0,545.0,0.0,0.0,0.0,0.0
6665,0,0,61,92,0,0,0,0,100,0,35,65,35,65,50,50,0,0,0,0,0,0,123.0,0.0,502.0,550.0,0.0,0.0,0.0,0.0
6698,0,0,60,92,0,0,0,0,100,0,35,65,35,65,50,50,0,0,0,0,0,0,123.0,0.0,497.0,553.0,0.0,0.0,0.0,0.0
6731,0,0,60,92,0,0,0,0,100,0,35,65,35,65,50,50,0,0,0,0,0,0,123.0,0.0,498.0,551.0,0.0,0.0,0.0,0.0
6764,0,0,60,92,0,0,0,0,100,0,35,65,35,65,50,50,0,0,0,0,0,0,124.0,0.0,497.0,550.0,0.0,0.0,0.0,0.0
6797,0,0,60,91,0,0,0,0,100,0,35,65,35,65,50,50,0,0,0,0,0,0,123.0,0.0,499.0,545.0,0.0,0.0,0.0,0.0
6830,0,0,59,88,0,0,0,0,100,0,36,64,36,64,50,50,0,0,0,0,0,0,124.0,0.0,494.0,532.0,0.0,0.0,0.0,0.0
6863,0,0,59,84,0,0,0,0,100,0,37,63,37,63,50,50,0,0,0,0,0,0,126.0,0.0,491.0,512.0,6.0,0.0,0.0,0.0
6896,0,0,57,77,0,0,0,0,100,0,38,62,38,62,50,50,0,0,0,0,0,0,126.0,0.0,480.0,475.0,18.0,0.0,0.0,0.0
6929,0,0,56,66,0,0,0,0,100,0,41,59,41,59,50,50,0,0,0,0,0,0,125.0,0.0,473.0,424.0,30.0,0.0,19.0,3.0
6962,0,0,54,50,0,0,0,0,100,0,47,53,47,53,50,50,0,0,0,0,0,0,125.0,0.0,461.0,343.0,43.0,9.0,45.0,49.0
6995,0,0,51,24,0,0,0,16,82,18,51,49,63,37,0,100,0,0,0,0,0,0,125.0,0.0,443.0,213.0,53.0,11.0,75.0,173.0
7028,0,0,48,0,0,0,0,42,51,49,48,52,100,0,0,100,0,0,0,0,0,0,122.0,1.0,426.0,67.0,63.0,21.0,104.0,304.0
7061,0,0,44,0,0,0,2,61,40,60,38,62,100,0,3,97,0,0,0,0,0,0,119.0,0.0,398.0,58.0,74.0,26.0,135.0,398.0
7094,0,0,37,0,0,0,8,74,31,69,34,66,100,0,8,92,0,0,0,0,0,0,110.0,0.0,357.0,55.0,82.0,33.0,175.0,461.0
7127,0,0,28,0,0,0,16,81,22,78,31,69,100,0,14,86,0,0,0,0,0,0,99.0,0.0,300.0,36.0,96.0,49.0,224.0,498.0
7160,0,0,19,0,0,0,22,85,15,85,28,72,100,0,17,83,0,0,0,0,0,0,85.0,0.0,243.0,20.0,109.0,67.0,261.0,519.0
7193,0,0,8,0,2,0,27,88,6,94,26,74,100,0,21,79,0,0,0,0,0,0,73.0,0.0,172.0,11.0,133.0,87.0,294.0,531.0
7226,0,0,0,0,5,0,32,87,0,100,26,74,50,50,26,74,0,0,0,0,0,0,60.0,0.0,112.0,5.0,153.0,97.0,324.0,528.0
7259,0,0,0,0,8,0,36,85,0,100,30,70,50,50,30,70,0,0,0,0,0,0,44.0,0.0,90.0,0.0,174.0,108.0,350.0,518.0
7292,0,0,0,0,11,0,41,83,0,100,34,66,50,50,34,66,0,0,0,0,0,0,40.0,0.0,79.0,0.0,192.0,116.0,377.0,507.0
7325,0,0,0,0,14,0,43,80,0,100,37,63,50,50,37,63,0,0,0,0,0,0,43.0,0.0,72.0,0.0,210.0,122.0,389.0,493.0
7358,0,0,0,0,16,0,44,79,0,100,39,61,50,50,38,62,0,0,0,0,0,0,36.0,0.0,68.0,0.0,220.0,125.0,398.0,486.0
7391,0,0,0,0,17,1,46,78,0,100,40,60,50,50,40,60,0,0,0,0,0,0,35.0,0.0,63.0,0.0,227.0,129.0,412.0,482.0
7424,0,0,0,0,17,1,47,78,0,100,41,59,50,50,41,59,0,0,0,0,0,0,35.0,0.0,56.0,0.0,229.0,131.0,419.0,480.0
7457,0,0,0,0,19,2,49,77,0,100,42,58,50,50,42,58,0,0,0,0,0,0,33.0,0.0,51.0,0.0,239.0,136.0,431.0,477.0
7490,0,0,0,0,20,2,50,75,0,100,44,56,50,50,43,57,0,0,0,0,0,0,31.0,0.0,49.0,0.0,245.0,137.0,436.0,468.0
7523,0,0,0,0,20,2,50,76,0,100,44,56,50,50,44,56,0,0,0,0,0,0,30.0,0.0,46.0,0.0,251.0,138.0,438.0,470.0
7556,0,0,0,0,21,3,50,76,0,100,44,56,50,50,43,57,0,0,0,0,0,0,30.0,0.0,44.0,0.0,252.0,139.0,434.0,474.0
7589,0,0,0,0,21,3,50,79,0,100,43,57,50,50,42,58,0,0,0,0,0,0,26.0,0.0,43.0,0.0,253.0,139.0,433.0,487.0
7622,0,0,0,0,21,2,50,79,0,100,43,57,50,50,42,58,0,0,0,0,0,0,25.0,0.0,37.0,0.0,253.0,133.0,433.0,488.0
7655,0,0,0,0,21,1,49,80,0,100,42,58,50,50,42,58,0,0,0,0,0,0,25.0,0.0,34.0,0.0,254.0,129.0,428.0,492.0
7688,0,0,0,0,21,1,49,81,0,100,42,58,50,50,42,58,0,0,0,0,0,0,24.0,0.0,35.0,0.0,254.0,127.0,430.0,499.0
7721,0,0,0,0,21,0,48,80,0,100,42,58,50,50,42,58,0,0,0,0,0,0,28.0,0.0,39.0,0.0,253.0,122.0,425.0,491.0
7754,0,0,0,0,21,0,48,77,0,100,42,58,50,50,42,58,0,0,0,0,0,0,40.0,0.0,77.0,0.0,253.0,118.0,424.0,477.0
7787,0,0,1,0,20,0,48,73,1,99,44,56,100,0,43,57,0,0,0,0,0,0,54.0,2.0,131.0,0.0,251.0,115.0,424.0,459.0
7820,0,0,10,0,19,0,47,68,6,94,48,52,100,0,44,56,0,0,0,0,0,0,68.0,6.0,183.0,0.0,244.0,111.0,416.0,433.0
7853,0,0,16,0,18,0,46,59,11,89,53,47,100,0,47,53,0,0,0,0,0,0,78.0,10.0,225.0,0.0,237.0,108.0,408.0,386.0
7886,0,0,22,0,17,0,44,46,16,84,59,41,100,0,52,48,0,0,0,0,0,0,85.0,8.0,258.0,0.0,231.0,106.0,396.0,324.0
7919,0,0,27,0,16,0,42,31,23,77,69,31,100,0,60,40,0,0,0,0,0,0,88.0,6.0,290.0,9.0,222.0,106.0,385.0,249.0
7952,0,0,30,0,13,0,39,16,31,69,80,20,100,0,72,28,0,0,0,0,0,0,90.0,5.0,313.0,51.0,202.0,97.0,364.0,171.0
7985,0,0,34,20,11,0,34,2,51,49,74,26,57,43,94,6,0,0,0,0,0,0,91.0,1.0,333.0,194.0,189.0,92.0,336.0,101.0
8018,0,0,37,48,8,0,26,0,71,29,55,45,39,61,100,0,0,0,0,0,0,0,93.0,3.0,352.0,331.0,172.0,79.0,286.0,45.0
8051,0,0,40,65,4,0,17,0,82,18,44,56,33,67,100,0,0,0,0,0,0,0,98.0,3.0,373.0,419.0,151.0,65.0,227.0,1.0
8084,0,0,44,77,1,0,7,0,93,7,36,64,32,68,100,0,0,0,0,0,0,0,104.0,3.0,397.0,478.0,132.0,54.0,165.0,38.0
8117,0,0,48,87,0,0,0,0,100,0,31,69,31,69,50,50,0,0,0,0,0,0,109.0,1.0,421.0,526.0,106.0,44.0,117.0,33.0
8150,0,0,50,94,0,0,0,0,100,0,31,69,31,69,50,50,0,0,0,0,0,0,111.0,0.0,438.0,560.0,79.0,25.0,75.0,27.0
8183,0,0,53,97,0,0,0,0,100,0,31,69,31,69,50,50,0,0,0,0,0,0,111.0,0.0,452.0,576.0,54.0,12.0,58.0,19.0
8216,0,0,55,98,0,0,0,0,100,0,31,69,31,69,50,50,0,0,0,0,0,0,110.0,0.0,464.0,583.0,38.0,3.0,36.0,15.0
8249,0,0,55,98,0,0,0,0,100,0,31,69,31,69,50,50,0,0,0,0,0,0,106.0,0.0,468.0,584.0,25.0,0.0,21.0,0.0
8282,0,0,56,97,0,0,0,0,100,0,32,68,32,68,50,50,0,0,0,0,0,0,104.0,0.0,473.0,579.0,18.0,0.0,13.0,0.0
8315,0,0,57,95,0,0,0,0,100,0,33,67,33,67,50,50,0,0,0,0,0,0,100.0,1.0,479.0,567.0,11.0,0.0,5.0,0.0
8348,0,0,57,94,0,0,0,0,100,0,33,67,33,67,50,50,0,0,0,0,0,0,97.0,0.0,482.0,561.0,5.0,0.0,0.0,0.0
8381,0,0,58,94,0,0,0,0,100,0,34,66,34,66,50,50,0,0,0,0,0,0,95.0,0.0,486.0,560.0,1.0,0.0,0.0,0.0
8414,0,0,59,94,0,0,0,0,100,0,34,66,34,66,50,50,0,0,0,0,0,0,95.0,0.0,491.0,560.0,0.0,0.0,0.0,0.0
8447,0,0,60,94,0,0,0,0,100,0,34,66,34,66,50,50,0,0,0,0,0,0,95.0,0.0,495.0,560.0,0.0,0.0,0.0,0.0
8480,0,0,61,94,0,0,0,0,100,0,35,65,35,65,50,50,0,0,0,0,0,0,95.0,0.0,502.0,560.0,0.0,0.0,0.0,0.0
8513,0,0,61,93,0,0,0,0,100,0,35,65,35,65,50,50,0,0,0,0,0,0,97.0,0.0,503.0,556.0,0.0,0.0,0.0,0.0
8546,0,0,62,92,0,0,0,0,100,0,35,65,35,65,50,50,0,0,0,0,0,0,101.0,0.0,508.0,550.0,0.0,0.0,0.0,0.0
8579,0,0,62,91,0,0,0,0,100,0,36,64,36,64,50,50,0,0,0,0,0,0,103.0,0.0,509.0,549.0,0.0,0.0,0.0,0.0
8612,0,0,61,91,0,0,0,0,100,0,35,65,35,65,50,50,0,0,0,0,0,0,106.0,0.0,507.0,548.0,0.0,0.0,0.0,0.0
8645,0,0,61,91,0,0,0,0,100,0,36,64,36,64,50,50,0,0,0,0,0,0,109.0,2.0,507.0,546.0,0.0,0.0,0.0,0.0
8678,0,0,61,91,0,0,0,0,100,0,36,64,36,64,50,50,0,0,0,0,0,0,109.0,0.0,507.0,547.0,0.0,0.0,0.0,0.0
8711,0,0,61,91,0,0,0,0,100,0,35,65,35,65,50,50,0,0,0,0,0,0,114.0,0.0,505.0,548.0,0.0,0.0,0.0,0.0
8744,0,0,61,90,0,0,0,0,100,0,36,64,36,64,50,50,0,0,0,0,0,0,117.0,1.0,505.0,542.0,0.0,0.0,0.0,0.0
8777,0,0,61,87,0,0,0,0,100,0,36,64,36,64,50,50,0,0,0,0,0,0,117.0,0.0,506.0,529.0,0.0,0.0,0.0,0.0
8810,0,0,61,84,0,0,0,0,100,0,37,63,37,63,50,50,0,0,0,0,0,0,123.0,2.0,503.0,510.0,13.0,0.0,0.0,0.0
8843,1,0,61,77,0,0,0,0,100,0,40,60,40,60,50,50,0,0,0,0,0,0,127.0,0.0,502.0,477.0,25.0,0.0,0.0,0.0
8876,2,0,60,68,0,0,0,0,100,0,43,57,43,57,50,50,0,0,0,0,0,0,136.0,4.0,499.0,433.0,41.0,0.0,22.0,0.0
8909,3,0,60,53,0,0,0,0,100,0,49,51,49,51,50,50,0,0,0,0,0,0,143.0,4.0,495.0,357.0,56.0,15.0,50.0,0.0
8942,4,0,59,32,0,0,0,0,100,0,61,39,61,39,50,50,0,0,0,0,0,0,151.0,8.0,492.0,254.0,73.0,30.0,90.0,4.0
8975,5,0,58,6,0,0,1,0,97,3,89,11,89,11,100,0,0,0,0,0,0,0,155.0,6.0,487.0,123.0,91.0,47.0,130.0,14.0
9008,6,0,57,0,0,0,11,0,84,16,100,0,100,0,100,0,0,0,0,0,0,0,159.0,9.0,477.0,26.0,118.0,65.0,190.0,87.0
9041,5,0,54,0,3,0,19,19,59,41,77,23,100,0,48,52,0,0,0,0,0,0,152.0,8.0,460.0,11.0,139.0,80.0,239.0,186.0
9074,3,0,50,0,5,0,24,41,42,58,62,38,100,0,37,63,0,0,0,0,0,0,141.0,6.0,433.0,19.0,156.0,90.0,274.0,298.0
9107,0,0,40,0,9,0,30,57,29,71,53,47,100,0,36,64,0,0,0,0,0,0,123.0,1.0,374.0,17.0,177.0,97.0,310.0,377.0
9140,0,0,29,0,13,0,36,66,20,80,49,51,100,0,38,62,0,0,0,0,0,0,106.0,0.0,307.0,11.0,202.0,109.0,347.0,423.0
9173,0,0,17,0,18,0,40,67,12,88,48,52,100,0,42,58,0,0,0,0,0,0,87.0,0.0,231.0,3.0,235.0,125.0,373.0,429.0
9206,0,0,5,0,23,3,44,66,3,97,48,52,100,0,46,54,0,0,0,0,0,0,68.0,0.0,153.0,0.0,267.0,139.0,398.0,424.0
9239,0,0,0,0,27,5,48,63,0,100,50,50,50,50,50,50,0,0,0,0,0,0,52.0,0.0,109.0,0.0,294.0,153.0,423.0,408.0
9272,0,0,0,0,30,6,51,58,0,100,55,45,50,50,54,46,0,0,0,0,0,0,45.0,0.0,90.0,0.0,311.0,160.0,444.0,382.0
9305,0,0,0,0,32,7,53,54,0,100,57,43,50,50,57,43,0,0,0,0,0,0,40.0,0.0,82.0,0.0,321.0,166.0,457.0,363.0
9338,0,0,0,0,33,8,56,50,0,100,60,40,50,50,60,40,0,0,0,0,0,0,40.0,0.0,75.0,0.0,330.0,170.0,470.0,343.0
9371,0,0,0,0,34,8,57,46,0,100,63,37,50,50,62,38,0,0,0,0,0,0,37.0,0.0,70.0,0.0,335.0,174.0,481.0,322.0
9404,0,0,0,0,35,9,59,43,0,100,65,35,50,50,64,36,0,0,0,0,0,0,37.0,0.0,65.0,0.0,339.0,177.0,491.0,306.0
9437,0,0,0,0,35,9,60,41,0,100,67,33,50,50,66,34,0,0,0,0,0,0,35.0,0.0,57.0,0.0,342.0,180.0,499.0,298.0
9470,0,0,0,0,36,10,61,42,0,100,67,33,50,50,66,34,0,0,0,0,0,0,33.0,0.0,54.0,0.0,345.0,185.0,507.0,303.0
9503,0,0,0,0,36,10,62,42,0,100,67,33,50,50,66,34,0,0,0,0,0,0,32.0,0.0,49.0,0.0,345.0,184.0,508.0,303.0
9536,0,0,0,0,36,10,62,40,0,100,68,32,50,50,67,33,0,0,0,0,0,0,29.0,0.0,49.0,0.0,348.0,184.0,510.0,292.0
9569,0,0,0,0,38,10,63,37,0,100,70,30,50,50,69,31,0,0,0,0,0,0,28.0,0.0,46.0,0.0,358.0,188.0,518.0,278.0
9602,0,0,0,0,38,10,64,33,0,100,73,27,50,50,72,28,0,0,0,0,0,0,28.0,0.0,44.0,0.0,362.0,188.0,522.0,255.0
9635,0,0,0,0,39,12,66,27,0,100,77,23,50,50,76,24,0,0,0,0,0,0,29.0,0.0,40.0,0.0,369.0,195.0,533.0,225.0
9668,0,0,0,0,40,12,66,20,0,100,82,18,50,50,81,19,0,0,0,0,0,0,23.0,0.0,43.0,0.0,375.0,197.0,536.0,194.0
9701,0,0,0,0,41,12,67,14,0,100,87,13,50,50,86,14,0,0,0,0,0,0,26.0,0.0,48.0,0.0,380.0,197.0,539.0,161.0
9734,0,0,0,0,41,13,66,6,0,100,93,7,50,50,93,7,0,0,0,0,0,0,39.0,1.0,116.0,0.0,380.0,202.0,538.0,121.0
9767,0,0,11,0,41,13,67,0,8,92,100,0,100,0,100,0,0,0,0,0,0,0,62.0,9.0,189.0,0.0,379.0,202.0,540.0,74.0
9800,0,0,21,0,41,13,66,0,15,85,100,0,100,0,100,0,0,0,0,0,0,0,92.0,19.0,253.0,0.0,379.0,207.0,537.0,32.0
9833,0,0,30,0,40,13,65,0,21,79,100,0,100,0,100,0,0,0,0,0,0,0,123.0,31.0,309.0,0.0,371.0,205.0,527.0,0.0
9866,6,0,38,0,38,13,64,0,29,71,100,0,100,0,100,0,0,0,0,0,0,0,163.0,36.0,359.0,0.0,362.0,206.0,520.0,0.0
9899,11,0,44,0,35,13,61,0,35,65,100,0,100,0,100,0,0,0,0,0,0,0,190.0,42.0,397.0,0.0,339.0,207.0,506.0,0.0
9932,15,0,49,0,31,12,59,0,40,60,100,0,100,0,100,0,0,0,0,0,0,0,219.0,51.0,428.0,33.0,316.0,200.0,489.0,0.0
9965,21,0,53,0,26,11,55,0,46,54,100,0,100,0,100,0,0,0,0,0,0,0,254.0,58.0,453.0,72.0,286.0,191.0,465.0,0.0
9998,26,0,58,7,19,8,47,0,56,44,94,6,90,10,100,0,0,0,0,0,0,0,286.0,62.0,486.0,129.0,244.0,172.0,419.0,0.0
10031,30,0,63,22,11,2,35,0,70,30,83,17,77,23,100,0,0,0,0,0,0,0,311.0,62.0,514.0,204.0,192.0,133.0,342.0,0.0
10064,34,0,66,39,4,0,20,0,84,16,72,28,68,32,100,0,0,0,0,0,0,0,337.0,63.0,537.0,288.0,149.0,93.0,250.0,0.0
10097,37,0,69,50,0,0,6,0,96,4,65,35,63,37,100,0,0,0,0,0,0,0,356.0,62.0,555.0,344.0,106.0,51.0,160.0,0.0
10130,38,0,71,57,0,0,0,0,100,0,61,39,61,39,50,50,0,0,0,0,0,0,359.0,57.0,566.0,378.0,77.0,19.0,90.0,0.0
10163,37,0,72,61,0,0,0,0,100,0,59,41,59,41,50,50,0,0,0,0,0,0,356.0,52.0,570.0,395.0,53.0,4.0,56.0,0.0
10196,37,0,73,61,0,0,0,0,100,0,59,41,59,41,50,50,0,0,0,0,0,0,353.0,47.0,581.0,398.0,38.0,0.0,33.0,0.0
10229,36,0,72,61,0,0,0,0,100,0,59,41,59,41,50,50,0,0,0,0,0,0,347.0,41.0,574.0,398.0,23.0,0.0,23.0,0.0
10262,35,0,72,60,0,0,0,0,100,0,59,41,59,41,50,50,0,0,0,0,0,0,339.0,32.0,574.0,391.0,14.0,0.0,11.0,0.0
10295,34,0,72,60,0,0,0,0,100,0,59,41,59,41,50,50,0,0,0,0,0,0,333.0,26.0,573.0,394.0,8.0,0.0,5.0,0.0
10328,32,0,72,62,0,0,0,0,100,0,58,42,58,42,50,50,0,0,0,0,0,0,325.0,24.0,573.0,404.0,3.0,0.0,0.0,0.0
10361,31,0,72,66,0,0,0,0,100,0,56,44,56,44,50,50,0,0,0,0,0,0,318.0,19.0,570.0,420.0,0.0,0.0,0.0,0.0
10394,29,0,71,69,0,0,0,0,100,0,54,46,54,46,50,50,0,0,0,0,0,0,305.0,16.0,568.0,438.0,0.0,0.0,0.0,0.0
10427,26,0,71,73,0,0,0,0,100,0,52,48,52,48,50,50,0,0,0,0,0,0,287.0,11.0,565.0,456.0,0.0,0.0,0.0,0.0
10460,24,0,70,75,0,0,0,0,100,0,50,50,50,50,50,50,0,0,0,0,0,0,270.0,6.0,561.0,469.0,0.0,0.0,0.0,0.0
10493,20,0,69,78,0,0,0,0,100,0,49,51,49,51,50,50,0,0,0,0,0,0,251.0,8.0,554.0,481.0,0.0,0.0,0.0,0.0
10526,17,0,68,79,0,0,0,0,100,0,47,53,47,53,50,50,0,0,0,0,0,0,231.0,8.0,551.0,489.0,0.0,0.0,0.0,0.0
10559,15,0,68,81,0,0,0,0,100,0,45,55,45,55,50,50,0,0,0,0,0,0,216.0,9.0,545.0,497.0,0.0,0.0,0.0,0.0
10592,13,0,67,82,0,0,0,0,100,0,44,56,44,56,50,50,0,0,0,0,0,0,202.0,5.0,541.0,503.0,0.0,0.0,0.0,0.0
10625,11,0,66,83,0,0,0,0,100,0,43,57,43,57,50,50,0,0,0,0,0,0,193.0,3.0,536.0,509.0,0.0,0.0,0.0,0.0
10658,9,0,66,84,0,0,0,0,100,0,42,58,42,58,50,50,0,0,0,0,0,0,180.0,3.0,533.0,512.0,0.0,0.0,0.0,0.0
10691,7,0,64,84,0,0,0,0,100,0,41,59,41,59,50,50,0,0,0,0,0,0,169.0,2.0,525.0,513.0,0.0,0.0,0.0,0.0
10724,5,0,63,84,0,0,0,0,100,0,40,60,40,60,50,50,0,0,0,0,0,0,157.0,2.0,519.0,511.0,0.0,0.0,0.0,0.0
10757,4,0,62,83,0,0,0,0,100,0,39,61,39,61,50,50,0,0,0,0,0,0,146.0,0.0,510.0,507.0,6.0,0.0,0.0,0.0
10790,2,0,60,79,0,0,0,0,100,0,39,61,39,61,50,50,0,0,0,0,0,0,136.0,0.0,497.0,489.0,16.0,0.0,0.0,0.0
10823,1,0,58,74,0,0,0,0,100,0,39,61,39,61,50,50,0,0,0,0,0,0,128.0,0.0,486.0,463.0,30.0,0.0,13.0,0.0
10856,0,0,56,65,0,0,0,0,100,0,41,59,41,59,50,50,0,0,0,0,0,0,123.0,2.0,473.0,418.0,41.0,0.0,37.0,7.0
10889,0,0,54,51,0,0,0,0,99,1,46,54,46,54,0,100,0,0,0,0,0,0,117.0,1.0,459.0,347.0,54.0,0.0,64.0,93.0
10922,0,0,51,32,0,0,0,23,78,22,43,57,57,43,0,100,0,0,0,0,0,0,111.0,1.0,443.0,251.0,63.0,10.0,92.0,205.0
10955,0,0,48,5,0,0,0,45,51,49,44,56,88,12,0,100,0,0,0,0,0,0,104.0,0.0,422.0,116.0,82.0,25.0,121.0,317.0
10988,0,0,42,0,0,0,6,61,38,62,40,60,100,0,8,92,0,0,0,0,0,0,93.0,0.0,386.0,86.0,98.0,40.0,160.0,395.0
11021,0,0,35,0,0,0,14,69,29,71,37,63,100,0,14,86,0,0,0,0,0,0,86.0,0.0,341.0,70.0,115.0,55.0,209.0,436.0
11054,0,0,25,0,3,0,22,74,20,80,36,64,100,0,22,78,0,0,0,0,0,0,77.0,0.0,281.0,41.0,142.0,75.0,262.0,462.0
11087,0,0,15,0,8,0,30,77,11,89,36,64,100,0,29,71,0,0,0,0,0,0,66.0,0.0,218.0,21.0,174.0,101.0,311.0,478.0
11120,0,0,4,0,16,0,36,76,3,97,37,63,100,0,36,64,0,0,0,0,0,0,57.0,0.0,145.0,11.0,220.0,118.0,346.0,472.0
11153,0,0,0,0,21,2,41,72,0,100,42,58,50,50,42,58,0,0,0,0,0,0,51.0,0.0,113.0,5.0,255.0,135.0,380.0,452.0
11186,0,0,0,0,27,4,45,65,0,100,49,51,50,50,48,52,0,0,0,0,0,0,45.0,0.0,98.0,0.0,290.0,151.0,407.0,419.0
11219,0,0,0,0,31,6,50,58,0,100,55,45,50,50,54,46,0,0,0,0,0,0,44.0,0.0,90.0,0.0,316.0,162.0,437.0,382.0
11252,0,0,0,0,33,8,52,50,0,100,60,40,50,50,59,41,0,0,0,0,0,0,42.0,0.0,84.0,0.0,332.0,174.0,450.0,344.0
11285,0,0,0,0,36,9,56,43,0,100,65,35,50,50,64,36,0,0,0,0,0,0,41.0,0.0,78.0,0.0,349.0,182.0,471.0,309.0
11318,0,0,0,0,38,10,58,36,0,100,70,30,50,50,69,31,0,0,0,0,0,0,40.0,0.0,71.0,0.0,363.0,188.0,485.0,272.0
11351,0,0,0,0,41,11,60,28,0,100,75,25,50,50,75,25,0,0,0,0,0,0,38.0,0.0,70.0,0.0,379.0,194.0,498.0,234.0
11384,0,0,0,0,44,13,62,20,0,100,82,18,50,50,81,19,0,0,0,0,0,0,37.0,0.0,63.0,0.0,400.0,204.0,513.0,194.0
11417,0,0,0,0,47,15,63,11,0,100,89,11,50,50,89,11,0,0,0,0,0,0,36.0,0.0,57.0,0.0,418.0,215.0,518.0,147.0
11450,0,0,0,0,50,16,64,3,0,100,96,4,50,50,96,4,0,0,0,0,0,0,35.0,0.0,55.0,0.0,435.0,222.0,525.0,109.0
11483,0,0,0,0,52,17,65,0,0,100,100,0,50,50,100,0,0,0,0,0,0,0,32.0,0.0,51.0,0.0,449.0,229.0,531.0,79.0
11516,0,0,0,0,53,18,66,0,0,100,100,0,50,50,100,0,0,0,0,0,0,0,30.0,0.0,50.0,0.0,457.0,233.0,534.0,64.0
11549,0,0,0,0,54,19,66,0,0,100,100,0,50,50,100,0,0,0,0,0,0,0,30.0,0.0,57.0,0.0,461.0,240.0,535.0,57.0
11582,0,0,0,0,54,19,66,0,0,100,100,0,50,50,100,0,0,0,0,0,0,0,44.0,0.0,104.0,0.0,461.0,242.0,536.0,43.0
11615,0,0,9,0,54,19,65,0,7,93,100,0,100,0,100,0,0,0,0,0,0,0,59.0,8.0,180.0,0.0,461.0,243.0,531.0,24.0
11648,0,0,19,0,53,20,65,0,13,87,100,0,100,0,100,0,0,0,0,0,0,0,78.0,9.0,241.0,0.0,456.0,245.0,529.0,6.0
11681,0,0,28,0,52,20,64,0,19,81,100,0,100,0,100,0,0,0,0,0,0,0,94.0,18.0,300.0,0.0,445.0,247.0,521.0,0.0
11714,0,0,37,0,49,19,61,0,24,76,100,0,100,0,100,0,0,0,0,0,0,0,103.0,21.0,356.0,0.0,431.0,244.0,507.0,0.0
11747,0,0,43,0,46,19,60,0,27,73,100,0,100,0,100,0,0,0,0,0,0,0,115.0,18.0,393.0,0.0,412.0,242.0,500.0,0.0
11780,0,0,47,0,42,18,57,0,30,70,100,0,100,0,100,0,0,0,0,0,0,0,121.0,18.0,415.0,4.0,386.0,233.0,482.0,0.0
11813,1,0,50,0,36,16,55,0,34,66,100,0,100,0,100,0,0,0,0,0,0,0,127.0,16.0,435.0,25.0,351.0,224.0,466.0,0.0
11846,2,0,53,3,30,13,50,0,41,59,96,4,92,8,100,0,0,0,0,0,0,0,133.0,13.0,456.0,109.0,311.0,202.0,436.0,0.0
11879,4,0,57,37,22,8,42,0,59,41,74,26,58,42,100,0,0,0,0,0,0,0,145.0,14.0,482.0,276.0,260.0,175.0,386.0,0.0
11912,5,0,61,58,12,2,30,0,74,26,61,39,48,52,100,0,0,0,0,0,0,0,157.0,13.0,506.0,383.0,201.0,135.0,311.0,0.0
11945,8,0,64,71,5,0,16,0,86,14,52,48,45,55,100,0,0,0,0,0,0,0,171.0,14.0,523.0,445.0,152.0,92.0,224.0,0.0
11978,9,0,66,77,0,0,3,0,97,3,45,55,44,56,100,0,0,0,0,0,0,0,181.0,11.0,535.0,478.0,114.0,53.0,141.0,0.0
12011,10,0,67,80,0,0,0,0,100,0,44,56,44,56,50,50,0,0,0,0,0,0,186.0,11.0,542.0,494.0,81.0,21.0,87.0,0.0
12044,10,0,68,81,0,0,0,0,100,0,44,56,44,56,50,50,0,0,0,0,0,0,186.0,8.0,550.0,499.0,54.0,2.0,55.0,0.0
12077,10,0,68,80,0,0,0,0,100,0,45,55,45,55,50,50,0,0,0,0,0,0,187.0,8.0,551.0,494.0,37.0,1.0,34.0,0.0
12110,10,0,69,78,0,0,0,0,100,0,45,55,45,55,50,50,0,0,0,0,0,0,184.0,5.0,555.0,484.0,25.0,0.0,22.0,0.0
12143,10,0,69,77,0,0,0,0,100,0,46,54,46,54,50,50,0,0,0,0,0,0,185.0,5.0,557.0,479.0,13.0,0.0,10.0,0.0
12176,10,0,69,77,0,0,0,0,100,0,46,54,46,54,50,50,0,0,0,0,0,0,184.0,5.0,556.0,478.0,9.0,0.0,5.0,0.0
12209,10,0,70,77,0,0,0,0,100,0,46,54,46,54,50,50,0,0,0,0,0,0,185.0,6.0,558.0,479.0,4.0,0.0,0.0,0.0
12242,10,0,70,77,0,0,0,0,100,0,46,54,46,54,50,50,0,0,0,0,0,0,184.0,4.0,561.0,479.0,4.0,0.0,0.0,0.0
12275,10,0,70,78,0,0,0,0,100,0,46,54,46,54,50,50,0,0,0,0,0,0,188.0,4.0,562.0,480.0,0.0,0.0,0.0,0.0
12308,11,0,71,77,0,0,0,0,100,0,47,53,47,53,50,50,0,0,0,0,0,0,190.0,5.0,565.0,477.0,0.0,0.0,0.0,0.0
12341,11,0,71,77,0,0,0,0,100,0,47,53,47,53,50,50,0,0,0,0,0,0,192.0,5.0,566.0,477.0,0.0,0.0,0.0,0.0
12374,12,0,71,77,0,0,0,0,100,0,47,53,47,53,50,50,0,0,0,0,0,0,195.0,6.0,566.0,475.0,0.0,0.0,0.0,0.0
12407,12,0,71,76,0,0,0,0,100,0,47,53,47,53,50,50,0,0,0,0,0,0,195.0,5.0,567.0,474.0,0.0,0.0,0.0,0.0
12440,11,0,71,76,0,0,0,0,100,0,47,53,47,53,50,50,0,0,0,0,0,0,194.0,4.0,566.0,474.0,0.0,0.0,0.0,0.0
12473,11,0,71,76,0,0,0,0,100,0,47,53,47,53,50,50,0,0,0,0,0,0,193.0,5.0,567.0,473.0,0.0,0.0,0.0,0.0
12506,11,0,71,76,0,0,0,0,100,0,47,53,47,53,50,50,0,0,0,0,0,0,193.0,8.0,565.0,474.0,0.0,0.0,0.0,0.0
12539,11,0,71,77,0,0,0,0,100,0,47,53,47,53,50,50,0,0,0,0,0,0,190.0,4.0,566.0,475.0,0.0,0.0,0.0,0.0
12572,11,0,71,76,0,0,0,0,100,0,47,53,47,53,50,50,0,0,0,0,0,0,190.0,6.0,565.0,473.0,0.0,0.0,0.0,0.0
12605,10,0,70,74,0,0,0,0,100,0,47,53,47,53,50,50,0,0,0,0,0,0,188.0,8.0,563.0,461.0,0.0,0.0,0.0,0.0
12638,10,0,70,69,0,0,0,0,100,0,49,51,49,51,50,50,0,0,0,0,0,0,184.0,5.0,561.0,439.0,11.0,0.0,0.0,0.0
12671,9,0,69,60,0,0,0,0,100,0,52,48,52,48,50,50,0,0,0,0,0,0,181.0,6.0,554.0,393.0,22.0,0.0,9.0,0.0
12704,9,0,68,47,0,0,0,0,100,0,57,43,57,43,50,50,0,0,0,0,0,0,179.0,9.0,549.0,326.0,40.0,1.0,36.0,0.0
12737,9,0,67,27,0,0,0,0,100,0,70,30,70,30,50,50,0,0,0,0,0,0,180.0,6.0,544.0,227.0,53.0,16.0,76.0,0.0
12770,8,0,66,3,0,0,0,0,100,0,94,6,94,6,50,50,0,0,0,0,0,0,175.0,8.0,534.0,108.0,67.0,28.0,113.0,12.0
12803,9,0,63,0,0,0,8,0,89,11,100,0,100,0,100,0,0,0,0,0,0,0,177.0,9.0,519.0,24.0,88.0,51.0,175.0,76.0
12836,8,0,61,0,0,0,16,12,70,30,85,15,100,0,52,48,0,0,0,0,0,0,176.0,9.0,505.0,21.0,106.0,61.0,224.0,153.0
12869,8,0,57,0,2,0,25,27,54,46,73,27,100,0,44,56,0,0,0,0,0,0,174.0,11.0,480.0,7.0,133.0,84.0,278.0,229.0
12902,5,0,52,0,7,0,33,38,42,58,68,32,100,0,46,54,0,0,0,0,0,0,157.0,8.0,450.0,6.0,166.0,104.0,328.0,283.0
12918,5,0,52,0,14,0,39,46,36,64,67,33,100,0,49,51,0,0,0,0,0,0,157.0,8.0,450.0,6.0,211.0,125.0,366.0,320.0
12951,1,0,44,0,19,3,43,49,28,72,65,35,100,0,51,49,0,0,0,0,0,0,130.0,3.0,400.0,7.0,243.0,140.0,394.0,337.0
12984,0,0,33,0,24,5,46,52,21,79,63,37,100,0,53,47,0,0,0,0,0,0,100.0,0.0,332.0,1.0,270.0,154.0,413.0,351.0
13017,0,0,19,0,27,7,49,52,12,88,61,39,100,0,55,45,0,0,0,0,0,0,83.0,0.0,239.0,0.0,293.0,164.0,431.0,354.0
13050,0,0,4,0,30,8,51,53,3,97,58,42,100,0,56,44,0,0,0,0,0,0,67.0,0.0,150.0,0.0,309.0,171.0,440.0,359.0
13083,0,0,0,0,31,8,52,54,0,100,57,43,50,50,56,44,0,0,0,0,0,0,58.0,0.0,119.0,0.0,318.0,174.0,447.0,361.0
13116,0,0,0,0,33,9,53,54,0,100,58,42,50,50,57,43,0,0,0,0,0,0,51.0,0.0,103.0,0.0,328.0,179.0,456.0,360.0
13149,0,0,0,0,34,10,54,53,0,100,59,41,50,50,58,42,0,0,0,0,0,0,50.0,0.0,94.0,0.0,336.0,183.0,461.0,355.0
13182,0,0,0,0,36,10,54,52,0,100,60,40,50,50,59,41,0,0,0,0,0,0,47.0,0.0,85.0,0.0,345.0,186.0,461.0,351.0
13215,0,0,0,0,36,10,55,53,0,100,60,40,50,50,59,41,0,0,0,0,0,0,44.0,0.0,80.0,0.0,347.0,184.0,467.0,355.0
13248,0,0,0,0,35,9,55,53,0,100,60,40,50,50,59,41,0,0,0,0,0,0,41.0,0.0,72.0,0.0,344.0,182.0,467.0,355.0
13281,0,0,0,0,36,9,55,54,0,100,59,41,50,50,58,42,0,0,0,0,0,0,40.0,0.0,71.0,0.0,346.0,178.0,468.0,364.0
13314,0,0,0,0,36,8,56,56,0,100,59,41,50,50,58,42,0,0,0,0,0,0,39.0,0.0,66.0,0.0,346.0,175.0,471.0,371.0
13347,0,0,0,0,35,8,56,56,0,100,58,42,50,50,58,42,0,0,0,0,0,0,38.0,0.0,62.0,0.0,344.0,170.0,475.0,374.0
13380,0,0,0,0,35,7,57,57,0,100,58,42,50,50,57,43,0,0,0,0,0,0,36.0,0.0,59.0,0.0,340.0,169.0,480.0,375.0
13413,0,0,0,0,34,7,57,57,0,100,58,42,50,50,57,43,0,0,0,0,0,0,35.0,0.0,55.0,0.0,337.0,164.0,480.0,378.0
13446,0,0,0,0,33,6,58,58,0,100,57,43,50,50,57,43,0,0,0,0,0,0,32.0,0.0,51.0,0.0,331.0,161.0,486.0,380.0
13479,0,0,0,0,32,5,59,55,0,100,58,42,50,50,58,42,0,0,0,0,0,0,31.0,0.0,52.0,0.0,326.0,155.0,489.0,369.0
13512,0,0,0,0,31,4,59,51,0,100,60,40,50,50,59,41,0,0,0,0,0,0,36.0,0.0,58.0,0.0,315.0,150.0,489.0,346.0
13545,0,0,0,0,30,4,58,43,0,100,63,37,50,50,63,37,0,0,0,0,0,0,50.0,1.0,121.0,0.0,310.0,147.0,487.0,305.0
13578,0,0,11,0,29,3,58,29,8,92,74,26,100,0,71,29,0,0,0,0,0,0,68.0,2.0,194.0,0.0,305.0,143.0,488.0,239.0
13611,0,0,21,0,28,3,57,12,17,83,88,12,100,0,85,15,0,0,0,0,0,0,88.0,6.0,256.0,0.0,296.0,143.0,480.0,150.0
13644,0,0,30,0,26,3,56,0,26,74,100,0,100,0,100,0,0,0,0,0,0,0,108.0,13.0,312.0,0.0,285.0,144.0,471.0,66.0
13677,0,0,38,0,23,3,53,0,32,68,100,0,100,0,100,0,0,0,0,0,0,0,122.0,16.0,358.0,0.0,268.0,140.0,456.0,7.0
13710,2,0,43,0,20,1,49,0,39,61,100,0,100,0,100,0,0,0,0,0,0,0,133.0,17.0,393.0,0.0,246.0,130.0,431.0,0.0
13743,3,0,48,0,14,0,43,0,48,52,100,0,100,0,100,0,0,0,0,0,0,0,141.0,12.0,423.0,25.0,212.0,113.0,391.0,0.0
13776,5,0,52,5,9,0,33,0,59,41,93,7,89,11,100,0,0,0,0,0,0,0,154.0,12.0,446.0,119.0,178.0,98.0,329.0,0.0
13809,7,0,57,37,4,0,20,0,80,20,66,34,59,41,100,0,0,0,0,0,0,0,169.0,11.0,478.0,275.0,145.0,79.0,251.0,0.0
13842,10,0,61,58,0,0,9,0,93,7,53,47,50,50,100,0,0,0,0,0,0,0,183.0,10.0,506.0,383.0,114.0,62.0,182.0,0.0
13875,12,0,64,71,0,0,0,0,100,0,47,53,47,53,50,50,0,0,0,0,0,0,200.0,9.0,521.0,446.0,87.0,33.0,103.0,0.0
13908,14,0,66,78,0,0,0,0,100,0,46,54,46,54,50,50,0,0,0,0,0,0,210.0,6.0,535.0,480.0,57.0,10.0,71.0,0.0
13941,15,0,67,81,0,0,0,0,100,0,45,55,45,55,50,50,0,0,0,0,0,0,214.0,6.0,541.0,496.0,42.0,3.0,46.0,0.0
13974,15,0,68,82,0,0,0,0,100,0,45,55,45,55,50,50,0,0,0,0,0,0,216.0,9.0,545.0,503.0,31.0,0.0,30.0,0.0
14007,15,0,68,81,0,0,0,0,100,0,46,54,46,54,50,50,0,0,0,0,0,0,219.0,6.0,548.0,498.0,23.0,0.0,22.0,0.0
14040,16,0,68,79,0,0,0,0,100,0,46,54,46,54,50,50,0,0,0,0,0,0,222.0,8.0,548.0,489.0,13.0,0.0,9.0,0.0
14073,16,0,68,78,0,0,0,0,100,0,47,53,47,53,50,50,0,0,0,0,0,0,224.0,8.0,551.0,481.0,6.0,0.0,5.0,0.0
14106,17,0,68,77,0,0,0,0,100,0,48,52,48,52,50,50,0,0,0,0,0,0,230.0,8.0,549.0,478.0,3.0,0.0,1.0,0.0
14139,17,0,69,78,0,0,0,0,100,0,48,52,48,52,50,50,0,0,0,0,0,0,232.0,5.0,552.0,480.0,0.0,0.0,0.0,0.0
14172,18,0,69,78,0,0,0,0,100,0,48,52,48,52,50,50,0,0,0,0,0,0,234.0,5.0,553.0,484.0,0.0,0.0,0.0,0.0
14205,18,0,69,79,0,0,0,0,100,0,47,53,47,53,50,50,0,0,0,0,0,0,233.0,6.0,554.0,486.0,0.0,0.0,0.0,0.0
14238,18,0,69,80,0,0,0,0,100,0,47,53,47,53,50,50,0,0,0,0,0,0,233.0,6.0,556.0,490.0,0.0,0.0,0.0,0.0
14271,18,0,68,79,0,0,0,0,100,0,47,53,47,53,50,50,0,0,0,0,0,0,233.0,6.0,551.0,489.0,0.0,0.0,0.0,0.0
14304,17,0,69,80,0,0,0,0,100,0,47,53,47,53,50,50,0,0,0,0,0,0,230.0,5.0,552.0,491.0,0.0,0.0,0.0,0.0
14337,17,0,68,80,0,0,0,0,100,0,47,53,47,53,50,50,0,0,0,0,0,0,229.0,5.0,549.0,492.0,0.0,0.0,0.0,0.0
14370,16,0,68,80,0,0,0,0,100,0,46,54,46,54,50,50,0,0,0,0,0,0,224.0,6.0,551.0,494.0,0.0,0.0,0.0,0.0
14403,16,0,68,80,0,0,0,0,100,0,46,54,46,54,50,50,0,0,0,0,0,0,220.0,6.0,547.0,493.0,0.0,0.0,0.0,0.0
14436,15,0,67,80,0,0,0,0,100,0,46,54,46,54,50,50,0,0,0,0,0,0,216.0,6.0,543.0,492.0,0.0,0.0,0.0,0.0
14469,14,0,67,78,0,0,0,0,100,0,46,54,46,54,50,50,0,0,0,0,0,0,210.0,6.0,541.0,483.0,14.0,0.0,0.0,0.0
14502,12,0,66,75,0,0,0,0,100,0,46,54,46,54,50,50,0,0,0,0,0,0,200.0,4.0,533.0,465.0,30.0,0.0,12.0,0.0
14535,12,0,65,68,0,0,0,0,100,0,48,52,48,52,50,50,0,0,0,0,0,0,196.0,5.0,529.0,433.0,42.0,0.0,42.0,0.0
14568,11,0,64,57,0,0,0,0,100,0,52,48,52,48,50,50,0,0,0,0,0,0,194.0,8.0,524.0,377.0,54.0,11.0,79.0,3.0
14601,11,0,63,40,0,0,0,0,100,0,60,40,60,40,50,50,0,0,0,0,0,0,192.0,6.0,517.0,290.0,65.0,26.0,112.0,18.0
14634,11,0,62,17,0,0,5,0,94,6,78,22,77,23,100,0,0,0,0,0,0,0,192.0,8.0,511.0,179.0,84.0,38.0,154.0,87.0
14667,11,0,60,0,0,0,12,14,72,28,83,17,100,0,42,58,0,0,0,0,0,0,190.0,5.0,499.0,67.0,99.0,55.0,199.0,162.0
14700,10,0,58,0,0,0,19,32,57,43,69,31,100,0,33,67,0,0,0,0,0,0,184.0,9.0,488.0,31.0,120.0,73.0,243.0,252.0
14733,8,0,56,0,2,0,25,46,48,52,62,38,100,0,33,67,0,0,0,0,0,0,174.0,10.0,472.0,38.0,138.0,86.0,280.0,322.0
14766,5,0,52,0,7,0,31,56,37,63,58,42,100,0,36,64,0,0,0,0,0,0,157.0,10.0,447.0,27.0,165.0,101.0,315.0,372.0
14799,4,0,46,0,12,0,35,62,31,69,56,44,100,0,39,61,0,0,0,0,0,0,148.0,10.0,409.0,16.0,199.0,119.0,343.0,404.0
14832,0,0,36,0,17,1,39,67,23,77,54,46,100,0,41,59,0,0,0,0,0,0,123.0,1.0,351.0,10.0,231.0,129.0,366.0,425.0
14865,0,0,25,0,21,2,41,68,16,84,52,48,100,0,43,57,0,0,0,0,0,0,101.0,0.0,281.0,2.0,254.0,138.0,382.0,430.0
14882,0,0,12,0,21,2,41,68,8,92,48,52,100,0,43,57,0,0,0,0,0,0,81.0,0.0,196.0,0.0,254.0,138.0,382.0,430.0
14915,0,0,1,0,24,3,43,69,0,100,46,54,100,0,45,55,0,0,0,0,0,0,66.0,0.0,128.0,0.0,272.0,143.0,392.0,435.0
14948,0,0,0,0,27,5,45,69,0,100,47,53,50,50,46,54,0,0,0,0,0,0,54.0,0.0,108.0,0.0,294.0,152.0,402.0,437.0
14981,0,0,0,0,28,5,45,70,0,100,48,52,50,50,47,53,0,0,0,0,0,0,51.0,0.0,94.0,0.0,301.0,155.0,407.0,440.0
15014,0,0,0,0,29,5,47,70,0,100,48,52,50,50,47,53,0,0,0,0,0,0,48.0,0.0,88.0,0.0,306.0,156.0,414.0,443.0
15047,0,0,0,0,30,6,48,70,0,100,49,51,50,50,48,52,0,0,0,0,0,0,47.0,0.0,81.0,0.0,309.0,160.0,424.0,443.0
15080,0,0,0,0,30,6,49,69,0,100,50,50,50,50,49,51,0,0,0,0,0,0,45.0,0.0,75.0,0.0,311.0,158.0,432.0,437.0
15113,0,0,0,0,31,6,51,67,0,100,51,49,50,50,50,50,0,0,0,0,0,0,41.0,0.0,72.0,0.0,314.0,159.0,444.0,429.0
15146,0,0,0,0,31,6,53,64,0,100,53,47,50,50,52,48,0,0,0,0,0,0,40.0,0.0,66.0,0.0,318.0,159.0,457.0,412.0
15179,0,0,0,0,32,6,56,61,0,100,55,45,50,50,54,46,0,0,0,0,0,0,39.0,0.0,65.0,0.0,322.0,161.0,470.0,398.0
15212,0,0,0,0,32,6,57,58,0,100,57,43,50,50,56,44,0,0,0,0,0,0,37.0,0.0,59.0,0.0,324.0,161.0,481.0,382.0
15245,0,0,0,0,33,6,59,57,0,100,58,42,50,50,57,43,0,0,0,0,0,0,34.0,0.0,55.0,0.0,327.0,160.0,490.0,377.0
15278,0,0,0,0,32,5,60,56,0,100,58,42,50,50,58,42,0,0,0,0,0,0,33.0,0.0,53.0,0.0,323.0,155.0,501.0,373.0
15311,0,0,0,0,32,4,62,54,0,100,59,41,50,50,59,41,0,0,0,0,0,0,30.0,0.0,49.0,0.0,321.0,151.0,509.0,364.0
15344,0,0,0,0,31,3,62,54,0,100,59,41,50,50,59,41,0,0,0,0,0,0,32.0,0.0,57.0,0.0,316.0,141.0,510.0,361.0
15377,0,0,0,0,28,2,62,49,0,100,60,40,50,50,60,40,0,0,0,0,0,0,46.0,3.0,113.0,0.0,301.0,135.0,510.0,339.0
15410,0,0,8,0,27,1,62,42,5,95,65,35,100,0,63,37,0,0,0,0,0,0,68.0,6.0,173.0,0.0,292.0,129.0,510.0,304.0
15443,0,0,17,0,25,0,61,31,12,88,73,27,100,0,70,30,0,0,0,0,0,0,86.0,11.0,228.0,0.0,280.0,125.0,506.0,245.0
15476,0,0,24,0,23,0,60,16,19,81,84,16,100,0,80,20,0,0,0,0,0,0,100.0,13.0,271.0,0.0,266.0,124.0,499.0,174.0
15509,0,0,30,0,20,0,59,2,26,74,97,3,100,0,96,4,0,0,0,0,0,0,107.0,13.0,308.0,0.0,248.0,117.0,490.0,101.0
15542,0,0,35,0,16,0,56,0,33,67,100,0,100,0,100,0,0,0,0,0,0,0,113.0,12.0,344.0,11.0,222.0,108.0,471.0,55.0
15575,0,0,39,0,13,0,51,0,37,63,100,0,100,0,100,0,0,0,0,0,0,0,116.0,10.0,367.0,67.0,202.0,100.0,444.0,9.0
15608,0,0,42,30,9,0,46,0,56,44,72,28,53,47,100,0,0,0,0,0,0,0,114.0,10.0,385.0,243.0,178.0,95.0,409.0,0.0
15641,0,0,46,55,5,0,36,0,71,29,56,44,41,59,100,0,0,0,0,0,0,0,117.0,11.0,412.0,368.0,153.0,77.0,346.0,9.0
15674,0,0,51,71,1,0,25,0,81,19,48,52,37,63,100,0,0,0,0,0,0,0,125.0,8.0,442.0,447.0,130.0,72.0,281.0,22.0
15707,2,0,55,79,0,0,10,0,92,8,41,59,37,63,100,0,0,0,0,0,0,0,133.0,6.0,465.0,487.0,94.0,42.0,187.0,21.0
15740,3,0,57,85,0,0,0,0,100,0,37,63,37,63,50,50,0,0,0,0,0,0,141.0,8.0,482.0,518.0,71.0,24.0,106.0,24.0
15773,4,0,60,88,0,0,0,0,100,0,37,63,37,63,50,50,0,0,0,0,0,0,145.0,5.0,497.0,532.0,49.0,5.0,75.0,19.0
15806,4,0,61,90,0,0,0,0,100,0,38,62,38,62,50,50,0,0,0,0,0,0,150.0,4.0,507.0,541.0,32.0,0.0,46.0,9.0
15839,5,0,62,90,0,0,0,0,100,0,38,62,38,62,50,50,0,0,0,0,0,0,157.0,5.0,511.0,540.0,27.0,0.0,28.0,0.0
15872,6,0,63,87,0,0,0,0,100,0,39,61,39,61,50,50,0,0,0,0,0,0,161.0,3.0,514.0,528.0,19.0,0.0,17.0,0.0
15905,7,0,63,86,0,0,0,0,100,0,40,60,40,60,50,50,0,0,0,0,0,0,166.0,4.0,518.0,524.0,11.0,0.0,9.0,0.0
15938,7,0,63,85,0,0,0,0,100,0,41,59,41,59,50,50,0,0,0,0,0,0,169.0,1.0,519.0,518.0,8.0,0.0,5.0,0.0
15971,8,0,63,85,0,0,0,0,100,0,41,59,41,59,50,50,0,0,0,0,0,0,175.0,2.0,519.0,519.0,4.0,0.0,3.0,0.0
16004,9,0,63,86,0,0,0,0,100,0,41,59,41,59,50,50,0,0,0,0,0,0,177.0,2.0,519.0,522.0,1.0,0.0,0.0,0.0
16037,9,0,64,87,0,0,0,0,100,0,41,59,41,59,50,50,0,0,0,0,0,0,179.0,3.0,520.0,528.0,0.0,0.0,0.0,0.0
16070,9,0,64,88,0,0,0,0,100,0,40,60,40,60,50,50,0,0,0,0,0,0,177.0,1.0,520.0,531.0,0.0,0.0,0.0,0.0
16103,9,0,63,88,0,0,0,0,100,0,40,60,40,60,50,50,0,0,0,0,0,0,177.0,2.0,518.0,533.0,0.0,0.0,0.0,0.0
16136,8,0,63,89,0,0,0,0,100,0,39,61,39,61,50,50,0,0,0,0,0,0,172.0,1.0,515.0,538.0,0.0,0.0,0.0,0.0
16169,7,0,62,90,0,0,0,0,100,0,39,61,39,61,50,50,0,0,0,0,0,0,167.0,1.0,512.0,541.0,0.0,0.0,0.0,0.0
16202,7,0,63,90,0,0,0,0,100,0,39,61,39,61,50,50,0,0,0,0,0,0,165.0,0.0,514.0,542.0,0.0,0.0,0.0,0.0
16235,6,0,62,91,0,0,0,0,100,0,38,62,38,62,50,50,0,0,0,0,0,0,162.0,1.0,509.0,548.0,0.0,0.0,0.0,0.0
16268,5,0,62,91,0,0,0,0,100,0,38,62,38,62,50,50,0,0,0,0,0,0,156.0,0.0,509.0,548.0,0.0,0.0,0.0,0.0
16301,4,0,62,92,0,0,0,0,100,0,37,63,37,63,50,50,0,0,0,0,0,0,151.0,0.0,508.0,550.0,0.0,0.0,0.0,0.0
16334,4,0,62,92,0,0,0,0,100,0,37,63,37,63,50,50,0,0,0,0,0,0,147.0,0.0,509.0,552.0,0.0,0.0,0.0,0.0
16367,3,0,61,92,0,0,0,0,100,0,37,63,37,63,50,50,0,0,0,0,0,0,142.0,0.0,506.0,550.0,0.0,0.0,0.0,0.0
16400,2,0,60,90,0,0,0,0,100,0,36,64,36,64,50,50,0,0,0,0,0,0,137.0,0.0,501.0,541.0,0.0,0.0,0.0,0.0
16433,2,0,59,87,0,0,0,0,100,0,36,64,36,64,50,50,0,0,0,0,0,0,133.0,1.0,494.0,529.0,6.0,0.0,0.0,0.0
16466,1,0,58,81,0,0,0,0,100,0,38,62,38,62,50,50,0,0,0,0,0,0,129.0,0.0,487.0,496.0,19.0,0.0,3.0,0.0
16499,0,0,57,74,0,0,0,0,100,0,39,61,39,61,50,50,0,0,0,0,0,0,122.0,0.0,481.0,461.0,33.0,0.0,25.0,3.0
16532,0,0,56,61,0,0,0,0,100,0,43,57,43,57,50,50,0,0,0,0,0,0,116.0,0.0,473.0,397.0,38.0,6.0,46.0,45.0
16565,0,0,54,41,0,0,0,15,86,14,44,56,52,48,0,100,0,0,0,0,0,0,116.0,0.0,461.0,297.0,46.0,11.0,71.0,167.0
16598,0,0,51,11,0,0,0,41,60,40,44,56,78,22,0,100,0,0,0,0,0,0,119.0,0.0,442.0,148.0,60.0,23.0,100.0,297.0
16631,0,0,47,0,0,0,2,57,44,56,41,59,100,0,3,97,0,0,0,0,0,0,116.0,0.0,418.0,70.0,80.0,30.0,137.0,379.0
16664,0,0,40,0,0,0,8,71,33,67,36,64,100,0,9,91,0,0,0,0,0,0,106.0,0.0,370.0,75.0,104.0,42.0,176.0,445.0
16697,0,0,29,0,0,0,16,80,23,77,32,68,100,0,15,85,0,0,0,0,0,0,91.0,0.0,306.0,47.0,124.0,60.0,225.0,492.0
16730,0,0,17,0,3,0,21,86,13,87,29,71,100,0,19,81,0,0,0,0,0,0,78.0,0.0,229.0,27.0,142.0,79.0,256.0,521.0
16763,0,0,4,0,7,0,25,90,3,97,25,75,100,0,23,77,0,0,0,0,0,0,61.0,0.0,151.0,14.0,168.0,98.0,279.0,541.0
16796,0,0,0,0,9,0,27,91,0,100,25,75,50,50,25,75,0,0,0,0,0,0,49.0,0.0,113.0,6.0,181.0,102.0,291.0,549.0
16829,0,0,0,0,12,0,28,92,0,100,26,74,50,50,26,74,0,0,0,0,0,0,47.0,0.0,96.0,2.0,197.0,110.0,301.0,553.0
16862,0,0,0,0,13,0,30,93,0,100,27,73,50,50,27,73,0,0,0,0,0,0,43.0,0.0,92.0,0.0,202.0,112.0,308.0,555.0
16895,0,0,0,0,12,0,31,93,0,100,28,72,50,50,28,72,0,0,0,0,0,0,43.0,0.0,83.0,0.0,201.0,110.0,316.0,557.0
16928,0,0,0,0,12,0,32,92,0,100,28,72,50,50,28,72,0,0,0,0,0,0,40.0,0.0,78.0,0.0,201.0,106.0,323.0,554.0
16961,0,0,0,0,13,0,34,93,0,100,29,71,50,50,29,71,0,0,0,0,0,0,40.0,0.0,70.0,0.0,203.0,101.0,334.0,555.0
16994,0,0,0,0,13,0,36,92,0,100,30,70,50,50,30,70,0,0,0,0,0,0,37.0,0.0,69.0,0.0,202.0,96.0,346.0,554.0
17027,0,0,0,0,13,0,38,93,0,100,31,69,50,50,31,69,0,0,0,0,0,0,36.0,0.0,64.0,0.0,202.0,91.0,360.0,557.0
17060,0,0,0,0,13,0,40,92,0,100,32,68,50,50,32,68,0,0,0,0,0,0,35.0,0.0,60.0,0.0,202.0,85.0,373.0,554.0
17093,0,0,0,0,13,0,42,92,0,100,33,67,50,50,33,67,0,0,0,0,0,0,33.0,0.0,54.0,0.0,204.0,81.0,385.0,551.0
17126,0,0,0,0,14,0,45,90,0,100,35,65,50,50,35,65,0,0,0,0,0,0,30.0,0.0,55.0,0.0,208.0,85.0,403.0,543.0
17159,0,0,0,0,14,0,47,88,0,100,36,64,50,50,36,64,0,0,0,0,0,0,31.0,0.0,51.0,0.0,212.0,81.0,414.0,532.0
17192,0,0,0,0,15,0,50,86,0,100,38,62,50,50,38,62,0,0,0,0,0,0,28.0,0.0,45.0,0.0,216.0,89.0,434.0,521.0
17225,0,0,0,0,16,0,52,83,0,100,40,60,50,50,40,60,0,0,0,0,0,0,27.0,0.0,41.0,0.0,221.0,89.0,445.0,508.0
17258,0,0,0,0,16,0,53,79,0,100,42,58,50,50,42,58,0,0,0,0,0,0,25.0,0.0,43.0,0.0,223.0,88.0,456.0,489.0
17291,0,0,0,0,16,0,55,74,0,100,44,56,50,50,44,56,0,0,0,0,0,0,33.0,0.0,63.0,0.0,223.0,89.0,466.0,464.0
17324,0,0,0,0,16,0,56,67,0,100,47,53,100,0,47,53,0,0,0,0,0,0,42.0,0.0,125.0,0.0,223.0,92.0,470.0,427.0
17357,0,0,13,0,16,0,56,56,9,91,55,45,100,0,51,49,0,0,0,0,0,0,52.0,0.0,202.0,0.0,226.0,98.0,472.0,373.0
17390,0,0,22,0,16,0,54,42,16,84,64,36,100,0,58,42,0,0,0,0,0,0,65.0,3.0,260.0,0.0,224.0,96.0,461.0,301.0
17423,0,0,31,0,15,0,51,22,25,75,78,22,100,0,71,29,0,0,0,0,0,0,76.0,2.0,314.0,0.0,217.0,95.0,444.0,204.0
17456,0,0,37,0,14,0,48,1,36,64,97,3,100,0,96,4,0,0,0,0,0,0,89.0,5.0,355.0,4.0,210.0,95.0,423.0,99.0
17489,0,0,44,0,12,0,42,0,47,53,100,0,100,0,100,0,0,0,0,0,0,0,103.0,6.0,400.0,30.0,195.0,92.0,385.0,19.0
17522,0,0,50,14,9,0,33,0,60,40,84,16,74,26,100,0,0,0,0,0,0,0,123.0,6.0,437.0,162.0,177.0,85.0,329.0,0.0
17555,4,0,55,44,4,0,21,0,79,21,61,39,53,47,100,0,0,0,0,0,0,0,150.0,9.0,468.0,312.0,151.0,67.0,255.0,16.0
17588,8,0,59,61,0,0,8,0,93,7,51,49,48,52,100,0,0,0,0,0,0,0,176.0,9.0,494.0,395.0,125.0,48.0,172.0,23.0
17621,12,0,62,71,0,0,0,0,100,0,46,54,46,54,50,50,0,0,0,0,0,0,196.0,8.0,509.0,449.0,92.0,23.0,101.0,22.0
17654,14,0,63,77,0,0,0,0,100,0,45,55,45,55,50,50,0,0,0,0,0,0,210.0,9.0,517.0,477.0,63.0,9.0,74.0,20.0
17687,14,0,64,79,0,0,0,0,100,0,45,55,45,55,50,50,0,0,0,0,0,0,213.0,5.0,525.0,488.0,41.0,0.0,45.0,8.0
17720,15,0,65,80,0,0,0,0,100,0,45,55,45,55,50,50,0,0,0,0,0,0,214.0,5.0,529.0,490.0,31.0,0.0,29.0,1.0
17753,14,0,65,79,0,0,0,0,100,0,45,55,45,55,50,50,0,0,0,0,0,0,211.0,5.0,528.0,488.0,22.0,0.0,17.0,0.0
17786,14,0,64,79,0,0,0,0,100,0,45,55,45,55,50,50,0,0,0,0,0,0,208.0,4.0,526.0,486.0,17.0,0.0,13.0,0.0
17819,12,0,65,79,0,0,0,0,100,0,45,55,45,55,50,50,0,0,0,0,0,0,199.0,3.0,528.0,486.0,7.0,0.0,3.0,0.0
17852,11,0,65,80,0,0,0,0,100,0,44,56,44,56,50,50,0,0,0,0,0,0,191.0,3.0,527.0,491.0,2.0,0.0,0.0,0.0
17885,9,0,64,82,0,0,0,0,100,0,42,58,42,58,50,50,0,0,0,0,0,0,177.0,2.0,525.0,500.0,0.0,0.0,0.0,0.0
17918,6,0,64,84,0,0,0,0,100,0,41,59,41,59,50,50,0,0,0,0,0,0,163.0,2.0,523.0,514.0,0.0,0.0,0.0,0.0
17951,4,0,64,86,0,0,0,0,100,0,39,61,39,61,50,50,0,0,0,0,0,0,151.0,1.0,522.0,524.0,0.0,0.0,0.0,0.0
17984,4,0,64,87,0,0,0,0,100,0,39,61,39,61,50,50,0,0,0,0,0,0,146.0,0.0,520.0,528.0,0.0,0.0,0.0,0.0
18017,2,0,63,88,0,0,0,0,100,0,38,62,38,62,50,50,0,0,0,0,0,0,137.0,0.0,519.0,532.0,0.0,0.0,0.0,0.0
18050,1,0,63,89,0,0,0,0,100,0,37,63,37,63,50,50,0,0,0,0,0,0,127.0,0.0,517.0,535.0,0.0,0.0,0.0,0.0
18083,0,0,62,89,0,0,0,0,100,0,36,64,36,64,50,50,0,0,0,0,0,0,119.0,0.0,513.0,538.0,0.0,0.0,0.0,0.0
18116,0,0,62,90,0,0,0,0,100,0,36,64,36,64,50,50,0,0,0,0,0,0,114.0,0.0,509.0,542.0,0.0,0.0,0.0,0.0
18149,0,0,61,90,0,0,0,0,100,0,36,64,36,64,50,50,0,0,0,0,0,0,110.0,0.0,505.0,542.0,0.0,0.0,0.0,0.0
18182,0,0,61,90,0,0,0,0,100,0,35,65,35,65,50,50,0,0,0,0,0,0,108.0,0.0,502.0,544.0,0.0,0.0,0.0,0.0
18215,0,0,61,89,0,0,0,0,100,0,36,64,36,64,50,50,0,0,0,0,0,0,102.0,0.0,502.0,539.0,0.0,0.0,0.0,0.0
18248,0,0,60,88,0,0,0,0,100,0,36,64,36,64,50,50,0,0,0,0,0,0,100.0,0.0,500.0,532.0,3.0,0.0,0.0,0.0
18281,0,0,60,85,0,0,0,0,100,0,37,63,37,63,50,50,0,0,0,0,0,0,98.0,0.0,496.0,515.0,36.0,0.0,0.0,0.0
18314,0,0,59,79,0,0,0,0,100,0,38,62,38,62,50,50,0,0,0,0,0,0,94.0,0.0,491.0,485.0,49.0,0.0,16.0,0.0
18347,0,0,58,71,0,0,0,0,100,0,40,60,40,60,50,50,0,0,0,0,0,0,93.0,0.0,486.0,447.0,61.0,0.0,57.0,0.0
18380,0,0,57,59,0,0,0,0,100,0,44,56,44,56,50,50,0,0,0,0,0,0,95.0,0.0,477.0,385.0,80.0,19.0,113.0,7.0
18413,0,0,55,42,0,0,10,0,90,10,56,44,52,48,100,0,0,0,0,0,0,0,93.0,0.0,469.0,301.0,103.0,34.0,183.0,10.0
18446,0,0,54,22,0,0,22,0,76,24,74,26,66,34,100,0,0,0,0,0,0,0,94.0,0.0,458.0,202.0,124.0,58.0,260.0,15.0
18479,0,0,51,0,6,0,32,0,57,43,100,0,100,0,100,0,0,0,0,0,0,0,92.0,0.0,443.0,86.0,158.0,86.0,325.0,36.0
18512,0,0,47,0,12,0,41,1,48,52,98,2,100,0,96,4,0,0,0,0,0,0,87.0,0.0,415.0,66.0,197.0,104.0,379.0,98.0
18545,0,0,40,0,20,0,48,12,33,67,87,13,100,0,82,18,0,0,0,0,0,0,83.0,0.0,371.0,59.0,245.0,123.0,421.0,152.0
18578,0,0,30,0,26,3,52,21,23,77,81,19,100,0,75,25,0,0,0,0,0,0,74.0,0.0,312.0,35.0,283.0,143.0,451.0,196.0
18611,0,0,18,0,31,6,57,28,13,87,76,24,100,0,72,28,0,0,0,0,0,0,62.0,0.0,234.0,20.0,319.0,162.0,481.0,230.0
18644,0,0,5,0,36,8,60,30,3,97,74,26,100,0,73,27,0,0,0,0,0,0,53.0,0.0,154.0,11.0,349.0,173.0,501.0,241.0
18677,0,0,0,0,40,10,63,27,0,100,76,24,50,50,76,24,0,0,0,0,0,0,43.0,0.0,115.0,2.0,375.0,186.0,518.0,228.0
18710,0,0,0,0,44,12,66,20,0,100,82,18,50,50,81,19,0,0,0,0,0,0,37.0,0.0,99.0,0.0,395.0,196.0,534.0,193.0
18743,0,0,0,0,47,13,67,14,0,100,87,13,50,50,86,14,0,0,0,0,0,0,38.0,0.0,91.0,0.0,414.0,204.0,539.0,163.0
18776,0,0,0,0,48,14,68,10,0,100,91,9,50,50,90,10,0,0,0,0,0,0,37.0,0.0,82.0,0.0,423.0,212.0,547.0,141.0
18809,0,0,0,0,49,16,68,9,0,100,92,8,50,50,91,9,0,0,0,0,0,0,38.0,0.0,77.0,0.0,430.0,220.0,551.0,135.0
18842,0,0,0,0,49,15,69,10,0,100,91,9,50,50,90,10,0,0,0,0,0,0,36.0,0.0,74.0,0.0,427.0,217.0,553.0,141.0
18875,0,0,0,0,48,15,69,14,0,100,87,13,50,50,87,13,0,0,0,0,0,0,34.0,0.0,67.0,0.0,423.0,216.0,554.0,163.0
18908,0,0,0,0,47,14,68,18,0,100,84,16,50,50,84,16,0,0,0,0,0,0,33.0,0.0,63.0,0.0,418.0,208.0,548.0,183.0
18941,0,0,0,0,47,13,68,23,0,100,81,19,50,50,80,20,0,0,0,0,0,0,31.0,0.0,58.0,0.0,417.0,206.0,546.0,208.0
18974,0,0,0,0,46,13,68,26,0,100,79,21,50,50,79,21,0,0,0,0,0,0,30.0,0.0,56.0,0.0,413.0,202.0,548.0,220.0
19007,0,0,0,0,46,12,68,28,0,100,78,22,50,50,77,23,0,0,0,0,0,0,29.0,0.0,51.0,0.0,410.0,197.0,547.0,233.0
19040,0,0,0,0,46,11,68,29,0,100,77,23,50,50,77,23,0,0,0,0,0,0,28.0,0.0,49.0,0.0,410.0,192.0,547.0,235.0
19073,0,0,0,0,46,11,67,27,0,100,78,22,50,50,77,23,0,0,0,0,0,0,27.0,0.0,46.0,0.0,410.0,194.0,544.0,227.0
19106,0,0,0,0,46,11,68,27,0,100,78,22,50,50,78,22,0,0,0,0,0,0,25.0,0.0,45.0,0.0,408.0,194.0,550.0,227.0
19139,0,0,0,0,45,10,68,25,0,100,79,21,50,50,79,21,0,0,0,0,0,0,24.0,0.0,49.0,0.0,403.0,187.0,549.0,218.0
19172,0,0,0,0,44,10,68,23,0,100,80,20,50,50,80,20,0,0,0,0,0,0,40.0,0.0,88.0,0.0,395.0,185.0,548.0,208.0
19205,0,0,5,0,42,10,67,18,4,96,84,16,100,0,83,17,0,0,0,0,0,0,59.0,0.0,155.0,0.0,387.0,185.0,543.0,180.0
19238,0,0,13,0,41,9,66,8,10,90,92,8,100,0,91,9,0,0,0,0,0,0,83.0,3.0,206.0,0.0,378.0,181.0,538.0,133.0
19271,0,0,21,0,39,9,64,0,16,84,100,0,100,0,100,0,0,0,0,0,0,0,101.0,1.0,255.0,0.0,365.0,180.0,526.0,74.0
19304,0,0,28,0,35,8,62,0,22,78,100,0,100,0,100,0,0,0,0,0,0,0,115.0,2.0,297.0,0.0,339.0,172.0,509.0,22.0
19337,0,0,33,0,30,6,59,0,26,74,100,0,100,0,100,0,0,0,0,0,0,0,123.0,2.0,329.0,22.0,313.0,162.0,492.0,0.0
19370,1,0,38,6,25,4,54,0,35,65,94,6,84,16,100,0,0,0,0,0,0,0,127.0,3.0,359.0,120.0,282.0,145.0,460.0,0.0
19403,2,0,43,38,19,1,47,0,55,45,71,29,49,51,100,0,0,0,0,0,0,0,134.0,1.0,393.0,281.0,244.0,129.0,417.0,0.0
19436,4,0,49,59,13,0,37,0,68,32,59,41,42,58,100,0,0,0,0,0,0,0,145.0,4.0,430.0,387.0,204.0,113.0,355.0,0.0
19469,6,0,54,72,7,0,24,0,80,20,51,49,41,59,100,0,0,0,0,0,0,0,160.0,4.0,462.0,453.0,168.0,91.0,274.0,0.0
19502,8,0,57,81,1,0,12,0,91,9,44,56,39,61,100,0,0,0,0,0,0,0,172.0,2.0,477.0,498.0,129.0,65.0,196.0,0.0
19535,8,0,58,88,0,0,0,0,100,0,38,62,38,62,50,50,0,0,0,0,0,0,176.0,2.0,487.0,531.0,100.0,31.0,110.0,0.0
19568,8,0,59,91,0,0,0,0,100,0,38,62,38,62,50,50,0,0,0,0,0,0,172.0,0.0,491.0,548.0,67.0,8.0,74.0,0.0
19601,6,0,59,93,0,0,0,0,100,0,36,64,36,64,50,50,0,0,0,0,0,0,158.0,0.0,492.0,558.0,47.0,0.0,45.0,0.0
19634,3,0,58,94,0,0,0,0,100,0,35,65,35,65,50,50,0,0,0,0,0,0,140.0,0.0,488.0,562.0,32.0,0.0,31.0,0.0
19667,0,0,57,95,0,0,0,0,100,0,33,67,33,67,50,50,0,0,0,0,0,0,125.0,0.0,481.0,565.0,24.0,0.0,21.0,0.0
19700,0,0,57,95,0,0,0,0,100,0,33,67,33,67,50,50,0,0,0,0,0,0,110.0,0.0,477.0,566.0,11.0,0.0,9.0,0.0
19733,0,0,56,96,0,0,0,0,100,0,32,68,32,68,50,50,0,0,0,0,0,0,103.0,0.0,474.0,572.0,5.0,0.0,2.0,0.0
19766,0,0,56,97,0,0,0,0,100,0,32,68,32,68,50,50,0,0,0,0,0,0,94.0,0.0,471.0,578.0,1.0,0.0,0.0,0.0
19799,0,0,55,98,0,0,0,0,100,0,31,69,31,69,50,50,0,0,0,0,0,0,89.0,0.0,467.0,583.0,1.0,0.0,0.0,0.0
19832,0,0,54,99,0,0,0,0,100,0,31,69,31,69,50,50,0,0,0,0,0,0,80.0,0.0,461.0,586.0,0.0,0.0,0.0,0.0
19865,0,0,52,100,0,0,0,0,100,0,30,70,30,70,50,50,0,0,0,0,0,0,73.0,0.0,451.0,594.0,0.0,0.0,0.0,0.0
19898,0,0,51,100,0,0,0,0,100,0,29,71,29,71,50,50,0,0,0,0,0,0,69.0,0.0,439.0,597.0,0.0,0.0,0.0,0.0
19931,0,0,49,100,0,0,0,0,100,0,29,71,29,71,50,50,0,0,0,0,0,0,64.0,0.0,430.0,600.0,0.0,0.0,0.0,0.0
19964,0,0,48,100,0,0,0,0,100,0,28,72,28,72,50,50,0,0,0,0,0,0,60.0,0.0,421.0,602.0,0.0,0.0,0.0,0.0
19997,0,0,47,100,0,0,0,0,100,0,28,72,28,72,50,50,0,0,0,0,0,0,59.0,0.0,417.0,601.0,0.0,0.0,0.0,0.0
20030,0,0,46,100,0,0,0,0,100,0,28,72,28,72,50,50,0,0,0,0,0,0,56.0,0.0,413.0,618.0,0.0,0.0,0.0,0.0
20063,0,0,46,100,0,0,0,0,100,0,27,73,27,73,50,50,0,0,0,0,0,0,55.0,0.0,409.0,618.0,0.0,0.0,0.0,0.0
20096,0,0,45,100,0,0,0,0,100,0,27,73,27,73,50,50,0,0,0,0,0,0,51.0,0.0,405.0,620.0,0.0,0.0,0.0,0.0
20129,0,0,45,100,0,0,0,0,100,0,27,73,27,73,50,50,0,0,0,0,0,0,50.0,0.0,402.0,620.0,0.0,0.0,0.0,0.0
20162,0,0,44,100,0,0,0,0,100,0,26,74,26,74,50,50,0,0,0,0,0,0,50.0,0.0,397.0,621.0,0.0,0.0,0.0,0.0
20195,0,0,43,100,0,0,0,0,100,0,26,74,26,74,50,50,0,0,0,0,0,0,49.0,0.0,392.0,620.0,0.0,0.0,0.0,0.0
20228,0,0,41,100,0,0,0,0,100,0,25,75,25,75,50,50,0,0,0,0,0,0,47.0,0.0,382.0,604.0,0.0,0.0,0.0,0.0
20261,0,0,40,100,0,0,0,0,100,0,25,75,25,75,50,50,0,0,0,0,0,0,48.0,0.0,376.0,593.0,15.0,0.0,0.0,0.0
20294,0,0,39,97,0,0,0,0,100,0,25,75,25,75,50,50,0,0,0,0,0,0,46.0,0.0,368.0,577.0,32.0,0.0,10.0,0.0
20327,0,0,38,93,0,0,0,0,100,0,25,75,25,75,50,50,0,0,0,0,0,0,45.0,0.0,363.0,555.0,46.0,12.0,38.0,0.0
20360,0,0,37,86,0,0,0,0,100,0,26,74,26,74,50,50,0,0,0,0,0,0,47.0,0.0,357.0,523.0,60.0,26.0,74.0,1.0
20393,0,0,37,77,0,0,0,0,100,0,28,72,28,72,50,50,0,0,0,0,0,0,46.0,0.0,352.0,477.0,73.0,34.0,113.0,15.0
20426,0,0,35,66,0,0,5,3,92,8,32,68,30,70,58,42,0,0,0,0,0,0,47.0,0.0,341.0,423.0,88.0,43.0,154.0,106.0
20459,0,0,32,45,0,0,12,27,66,34,34,66,37,63,28,72,0,0,0,0,0,0,45.0,0.0,324.0,318.0,105.0,52.0,199.0,225.0
20492,0,0,29,9,0,0,17,49,36,64,39,61,71,29,23,77,0,0,0,0,0,0,45.0,0.0,306.0,139.0,117.0,61.0,232.0,338.0
20525,0,0,24,4,1,0,23,63,25,75,38,62,81,19,25,75,0,0,0,0,0,0,42.0,0.0,275.0,114.0,132.0,72.0,268.0,405.0
20558,0,0,15,0,5,0,30,69,12,88,38,62,100,0,30,70,0,0,0,0,0,0,37.0,0.0,217.0,74.0,156.0,90.0,313.0,438.0
20591,0,0,6,0,10,0,36,74,5,95,37,63,100,0,34,66,0,0,0,0,0,0,37.0,0.0,163.0,43.0,183.0,108.0,346.0,462.0
20624,0,0,0,0,17,1,41,75,0,100,39,61,50,50,39,61,0,0,0,0,0,0,35.0,0.0,116.0,21.0,227.0,131.0,381.0,468.0
20657,0,0,0,0,21,4,45,73,0,100,44,56,50,50,43,57,0,0,0,0,0,0,28.0,0.0,91.0,12.0,257.0,149.0,403.0,459.0
20690,0,0,0,0,27,6,48,70,0,100,48,52,50,50,47,53,0,0,0,0,0,0,27.0,0.0,81.0,6.0,289.0,161.0,423.0,444.0
20723,0,0,0,0,30,8,50,66,0,100,51,49,50,50,50,50,0,0,0,0,0,0,26.0,0.0,76.0,0.0,309.0,174.0,435.0,423.0
20756,0,0,0,0,33,9,52,62,0,100,54,46,50,50,53,47,0,0,0,0,0,0,26.0,0.0,69.0,0.0,327.0,182.0,450.0,404.0
20789,0,0,0,0,34,10,54,58,0,100,57,43,50,50,56,44,0,0,0,0,0,0,26.0,0.0,66.0,0.0,336.0,188.0,459.0,382.0
20822,0,0,0,0,36,12,55,54,0,100,60,40,50,50,59,41,0,0,0,0,0,0,25.0,0.0,63.0,0.0,347.0,200.0,469.0,363.0
20855,0,0,0,0,37,13,57,49,0,100,63,37,50,50,62,38,0,0,0,0,0,0,25.0,0.0,58.0,0.0,357.0,202.0,480.0,336.0
20888,0,0,0,0,40,14,59,43,0,100,67,33,50,50,66,34,0,0,0,0,0,0,24.0,0.0,53.0,0.0,372.0,213.0,492.0,305.0
20921,0,0,0,0,42,16,60,37,0,100,71,29,50,50,70,30,0,0,0,0,0,0,22.0,0.0,49.0,0.0,383.0,220.0,497.0,275.0
20954,0,0,0,0,43,17,61,35,0,100,73,27,50,50,71,29,0,0,0,0,0,0,20.0,0.0,48.0,0.0,394.0,227.0,505.0,267.0
20987,0,0,0,0,44,17,61,36,0,100,72,28,50,50,71,29,0,0,0,0,0,0,20.0,0.0,43.0,0.0,396.0,232.0,506.0,273.0
21020,0,0,0,0,44,17,61,38,0,100,71,29,50,50,70,30,0,0,0,0,0,0,18.0,0.0,45.0,0.0,398.0,230.0,507.0,282.0
21053,0,0,0,0,45,18,61,35,0,100,73,27,50,50,72,28,0,0,0,0,0,0,27.0,0.0,53.0,0.0,402.0,235.0,506.0,266.0
21086,0,0,0,0,44,18,61,27,0,100,77,23,50,50,76,24,0,0,0,0,0,0,44.0,8.0,106.0,0.0,398.0,235.0,502.0,227.0
21119,0,0,5,0,44,18,60,17,4,96,85,15,100,0,83,17,0,0,0,0,0,0,61.0,14.0,157.0,0.0,397.0,237.0,500.0,178.0
21152,0,0,13,0,43,18,59,3,10,90,96,4,100,0,95,5,0,0,0,0,0,0,81.0,18.0,202.0,0.0,390.0,237.0,490.0,109.0
21185,0,0,20,0,42,18,58,0,15,85,100,0,100,0,100,0,0,0,0,0,0,0,97.0,20.0,245.0,0.0,384.0,237.0,485.0,47.0
21218,0,0,24,0,40,18,56,0,19,81,100,0,100,0,100,0,0,0,0,0,0,0,106.0,18.0,272.0,9.0,370.0,234.0,470.0,0.0
21251,0,0,27,0,36,17,53,0,22,78,100,0,100,0,100,0,0,0,0,0,0,0,107.0,14.0,291.0,44.0,350.0,230.0,455.0,0.0
21284,0,0,29,28,31,15,49,0,40,60,77,23,46,54,100,0,0,0,0,0,0,0,105.0,12.0,304.0,232.0,319.0,214.0,429.0,0.0
21317,0,0,30,61,25,11,42,0,56,44,58,42,29,71,100,0,0,0,0,0,0,0,98.0,3.0,311.0,397.0,278.0,190.0,387.0,0.0
21350,0,0,31,80,17,6,33,0,67,33,47,53,24,76,100,0,0,0,0,0,0,0,91.0,0.0,315.0,492.0,232.0,158.0,330.0,0.0
21383,0,0,32,93,10,0,22,0,79,21,36,64,22,78,100,0,0,0,0,0,0,0,84.0,0.0,321.0,556.0,187.0,123.0,258.0,0.0
21416,0,0,32,99,5,0,12,0,87,13,29,71,21,79,100,0,0,0,0,0,0,0,77.0,0.0,325.0,587.0,155.0,96.0,199.0,0.0
21449,0,0,33,100,2,0,2,0,96,4,24,76,21,79,100,0,0,0,0,0,0,0,74.0,0.0,329.0,624.0,138.0,68.0,134.0,0.0
21482,0,0,34,100,0,0,0,0,100,0,22,78,22,78,50,50,0,0,0,0,0,0,72.0,0.0,338.0,634.0,111.0,31.0,82.0,0.0
21515,0,0,36,100,0,0,0,0,100,0,23,77,23,77,50,50,0,0,0,0,0,0,69.0,0.0,345.0,637.0,79.0,14.0,59.0,0.0
21548,0,0,37,100,0,0,0,0,100,0,23,77,23,77,50,50,0,0,0,0,0,0,66.0,0.0,356.0,632.0,47.0,0.0,31.0,0.0
21581,0,0,38,100,0,0,0,0,100,0,24,76,24,76,50,50,0,0,0,0,0,0,63.0,0.0,363.0,627.0,32.0,0.0,22.0,0.0
21614,0,0,40,100,0,0,0,0,100,0,25,75,25,75,50,50,0,0,0,0,0,0,65.0,0.0,370.0,624.0,19.0,0.0,9.0,0.0
21647,0,0,41,100,0,0,0,0,100,0,25,75,25,75,50,50,0,0,0,0,0,0,62.0,0.0,378.0,621.0,11.0,0.0,4.0,0.0
21680,0,0,42,100,0,0,0,0,100,0,26,74,26,74,50,50,0,0,0,0,0,0,65.0,0.0,384.0,623.0,7.0,0.0,1.0,0.0
21713,0,0,43,100,0,0,0,0,100,0,26,74,26,74,50,50,0,0,0,0,0,0,65.0,0.0,391.0,624.0,2.0,0.0,0.0,0.0
21746,0,0,43,100,0,0,0,0,100,0,26,74,26,74,50,50,0,0,0,0,0,0,62.0,0.0,392.0,624.0,0.0,0.0,0.0,0.0
21779,0,0,43,100,0,0,0,0,100,0,26,74,26,74,50,50,0,0,0,0,0,0,60.0,0.0,394.0,626.0,0.0,0.0,0.0,0.0
21812,0,0,43,100,0,0,0,0,100,0,26,74,26,74,50,50,0,0,0,0,0,0,59.0,0.0,390.0,627.0,0.0,0.0,0.0,0.0
21845,0,0,43,100,0,0,0,0,100,0,26,74,26,74,50,50,0,0,0,0,0,0,58.0,0.0,389.0,629.0,0.0,0.0,0.0,0.0
21878,0,0,42,100,0,0,0,0,100,0,25,75,25,75,50,50,0,0,0,0,0,0,57.0,0.0,383.0,629.0,0.0,0.0,0.0,0.0
21911,0,0,41,100,0,0,0,0,100,0,25,75,25,75,50,50,0,0,0,0,0,0,57.0,0.0,378.0,631.0,0.0,0.0,0.0,0.0
21944,0,0,40,100,0,0,0,0,100,0,25,75,25,75,50,50,0,0,0,0,0,0,54.0,0.0,371.0,632.0,0.0,0.0,0.0,0.0
21977,0,0,38,100,0,0,0,0,100,0,24,76,24,76,50,50,0,0,0,0,0,0,54.0,0.0,362.0,632.0,0.0,0.0,0.0,0.0
22010,0,0,36,100,0,0,0,0,100,0,23,77,23,77,50,50,0,0,0,0,0,0,52.0,0.0,349.0,624.0,0.0,0.0,0.0,0.0
22043,0,0,34,100,0,0,0,0,100,0,22,78,22,78,50,50,0,0,0,0,0,0,52.0,0.0,338.0,604.0,0.0,0.0,0.0,0.0
22076,0,0,32,100,0,0,0,0,100,0,21,79,21,79,50,50,0,0,0,0,0,0,50.0,0.0,325.0,592.0,3.0,0.0,0.0,3.0
22109,0,0,30,97,0,0,0,0,100,0,20,80,20,80,50,50,0,0,0,0,0,0,50.0,0.0,312.0,578.0,22.0,0.0,2.0,10.0
22142,0,0,28,93,0,0,0,0,100,0,20,80,20,80,50,50,0,0,0,0,0,0,51.0,0.0,298.0,555.0,33.0,0.0,22.0,56.0
22175,0,0,26,87,0,0,0,12,90,10,18,82,20,80,0,100,0,0,0,0,0,0,50.0,0.0,285.0,527.0,46.0,0.0,49.0,151.0
22208,0,0,25,78,0,0,0,31,77,23,16,84,21,79,0,100,0,0,0,0,0,0,51.0,0.0,280.0,483.0,57.0,1.0,74.0,245.0
22241,0,0,24,66,0,0,0,47,65,35,14,86,23,77,0,100,0,0,0,0,0,0,50.0,0.0,271.0,423.0,69.0,13.0,97.0,326.0
22274,0,0,22,45,0,0,0,60,51,49,14,86,28,72,0,100,0,0,0,0,0,0,49.0,0.0,258.0,318.0,82.0,14.0,120.0,390.0
22307,0,0,19,13,0,0,4,71,29,71,18,82,54,46,4,96,0,0,0,0,0,0,46.0,0.0,240.0,157.0,93.0,18.0,148.0,449.0
22340,0,0,15,7,0,0,10,80,20,80,19,81,61,39,9,91,0,0,0,0,0,0,45.0,0.0,214.0,129.0,111.0,29.0,183.0,494.0
22373,0,0,8,0,0,0,14,87,7,93,17,83,100,0,12,88,0,0,0,0,0,0,41.0,0.0,171.0,84.0,119.0,42.0,213.0,528.0
22406,0,0,0,0,2,0,19,92,0,100,16,84,100,0,16,84,0,0,0,0,0,0,37.0,0.0,122.0,54.0,136.0,61.0,240.0,551.0
22439,0,0,0,0,5,0,21,95,0,100,19,81,50,50,19,81,0,0,0,0,0,0,32.0,0.0,90.0,25.0,154.0,73.0,257.0,565.0
22472,0,0,0,0,7,0,25,96,0,100,22,78,50,50,22,78,0,0,0,0,0,0,30.0,0.0,74.0,13.0,168.0,80.0,278.0,571.0
22505,0,0,0,0,9,0,28,96,0,100,24,76,50,50,24,76,0,0,0,0,0,0,26.0,0.0,67.0,8.0,180.0,89.0,298.0,572.0
22538,0,0,0,0,10,0,31,94,0,100,27,73,50,50,27,73,0,0,0,0,0,0,27.0,0.0,63.0,2.0,188.0,94.0,315.0,563.0
22571,0,0,0,0,12,0,33,93,0,100,29,71,50,50,29,71,0,0,0,0,0,0,26.0,0.0,61.0,0.0,199.0,98.0,331.0,558.0
22604,0,0,0,0,14,0,36,91,0,100,31,69,50,50,31,69,0,0,0,0,0,0,24.0,0.0,56.0,0.0,210.0,102.0,345.0,545.0
22637,0,0,0,0,16,0,39,89,0,100,34,66,50,50,34,66,0,0,0,0,0,0,22.0,0.0,51.0,0.0,221.0,114.0,367.0,538.0
22670,0,0,0,0,16,0,41,88,0,100,35,65,50,50,35,65,0,0,0,0,0,0,22.0,0.0,48.0,0.0,226.0,110.0,379.0,533.0
22703,0,0,0,0,17,0,42,88,0,100,36,64,50,50,36,64,0,0,0,0,0,0,21.0,0.0,46.0,0.0,231.0,111.0,384.0,531.0
22736,0,0,0,0,18,0,42,88,0,100,36,64,50,50,36,64,0,0,0,0,0,0,21.0,0.0,42.0,0.0,236.0,112.0,387.0,533.0
22769,0,0,0,0,19,0,44,88,0,100,37,63,50,50,37,63,0,0,0,0,0,0,20.0,0.0,38.0,0.0,239.0,114.0,395.0,533.0
22802,0,0,0,0,21,0,45,88,0,100,38,62,50,50,38,62,0,0,0,0,0,0,16.0,0.0,36.0,0.0,252.0,115.0,407.0,531.0
22835,0,0,0,0,21,0,46,87,0,100,39,61,50,50,39,61,0,0,0,0,0,0,16.0,0.0,33.0,0.0,257.0,114.0,412.0,526.0
22868,0,0,0,0,23,0,47,85,0,100,40,60,50,50,40,60,0,0,0,0,0,0,15.0,0.0,32.0,0.0,264.0,114.0,418.0,519.0
22901,0,0,0,0,24,0,48,85,0,100,41,59,50,50,41,59,0,0,0,0,0,0,15.0,0.0,30.0,0.0,270.0,115.0,425.0,517.0
22934,0,0,0,0,24,0,49,84,0,100,42,58,50,50,42,58,0,0,0,0,0,0,13.0,0.0,28.0,0.0,271.0,117.0,432.0,514.0
22967,0,0,0,0,24,0,50,83,0,100,42,58,50,50,42,58,0,0,0,0,0,0,12.0,0.0,29.0,0.0,273.0,112.0,434.0,506.0
23000,0,0,0,0,24,0,50,80,0,100,43,57,50,50,43,57,0,0,0,0,0,0,19.0,0.0,32.0,0.0,270.0,111.0,435.0,491.0
23033,0,0,0,0,24,0,51,76,0,100,44,56,50,50,44,56,0,0,0,0,0,0,35.0,0.0,69.0,0.0,270.0,111.0,439.0,474.0
23066,0,0,0,0,23,0,50,73,0,100,45,55,50,50,45,55,0,0,0,0,0,0,50.0,0.0,112.0,0.0,268.0,107.0,436.0,456.0
23099,0,0,4,0,22,0,49,67,2,98,48,52,100,0,47,53,0,0,0,0,0,0,64.0,0.0,147.0,0.0,262.0,103.0,430.0,429.0
23132,0,0,9,0,21,0,48,60,6,94,52,48,100,0,49,51,0,0,0,0,0,0,74.0,0.0,177.0,0.0,254.0,100.0,421.0,390.0
23165,0,0,13,0,19,0,46,51,10,90,56,44,100,0,51,49,0,0,0,0,0,0,81.0,0.0,203.0,0.0,242.0,96.0,412.0,346.0
23198,0,0,16,0,16,0,44,40,14,86,61,39,100,0,55,45,0,0,0,0,0,0,84.0,0.0,224.0,28.0,225.0,88.0,398.0,292.0
23231,0,0,19,8,14,0,40,27,25,75,63,37,64,36,62,38,0,0,0,0,0,0,85.0,0.0,242.0,134.0,210.0,81.0,376.0,227.0
23264,0,0,23,39,11,0,36,12,50,50,53,47,33,67,76,24,0,0,0,0,0,0,83.0,0.0,266.0,285.0,192.0,74.0,351.0,153.0
23297,0,0,26,56,9,0,32,0,66,34,50,50,28,72,100,0,0,0,0,0,0,0,84.0,0.0,288.0,373.0,180.0,68.0,323.0,86.0
23330,0,0,31,71,6,0,24,0,77,23,42,58,27,73,100,0,0,0,0,0,0,0,83.0,0.0,319.0,445.0,158.0,62.0,274.0,26.0
23363,0,0,37,81,3,0,15,0,86,14,36,64,27,73,100,0,0,0,0,0,0,0,86.0,0.0,352.0,497.0,139.0,48.0,214.0,53.0
23396,0,0,42,89,0,0,6,0,95,5,31,69,28,72,100,0,0,0,0,0,0,0,86.0,0.0,386.0,535.0,121.0,43.0,160.0,44.0
23429,0,0,46,94,0,0,0,0,100,0,29,71,29,71,50,50,0,0,0,0,0,0,89.0,0.0,411.0,560.0,93.0,29.0,108.0,35.0
23462,0,0,49,97,0,0,0,0,100,0,29,71,29,71,50,50,0,0,0,0,0,0,93.0,0.0,428.0,575.0,72.0,12.0,70.0,22.0
23495,0,0,51,98,0,0,0,0,100,0,30,70,30,70,50,50,0,0,0,0,0,0,93.0,0.0,444.0,583.0,47.0,3.0,46.0,17.0
23528,0,0,52,98,0,0,0,0,100,0,30,70,30,70,50,50,0,0,0,0,0,0,93.0,0.0,451.0,582.0,30.0,0.0,31.0,7.0
23561,0,0,54,97,0,0,0,0,100,0,31,69,31,69,50,50,0,0,0,0,0,0,93.0,0.0,458.0,577.0,23.0,0.0,16.0,0.0
23594,0,0,54,96,0,0,0,0,100,0,31,69,31,69,50,50,0,0,0,0,0,0,93.0,0.0,461.0,572.0,16.0,0.0,10.0,0.0
23627,0,0,54,95,0,0,0,0,100,0,32,68,32,68,50,50,0,0,0,0,0,0,92.0,0.0,463.0,568.0,9.0,0.0,4.0,0.0
23660,0,0,55,95,0,0,0,0,100,0,32,68,32,68,50,50,0,0,0,0,0,0,90.0,0.0,465.0,567.0,6.0,0.0,0.0,0.0
23693,0,0,55,96,0,0,0,0,100,0,32,68,32,68,50,50,0,0,0,0,0,0,89.0,0.0,467.0,571.0,0.0,0.0,0.0,0.0
23726,0,0,56,96,0,0,0,0,100,0,32,68,32,68,50,50,0,0,0,0,0,0,84.0,0.0,471.0,570.0,0.0,0.0,0.0,0.0
23759,0,0,56,97,0,0,0,0,100,0,32,68,32,68,50,50,0,0,0,0,0,0,83.0,0.0,473.0,576.0,0.0,0.0,0.0,0.0
23792,0,0,56,97,0,0,0,0,100,0,32,68,32,68,50,50,0,0,0,0,0,0,83.0,0.0,470.0,578.0,0.0,0.0,0.0,0.0
23825,0,0,56,97,0,0,0,0,100,0,32,68,32,68,50,50,0,0,0,0,0,0,80.0,0.0,470.0,578.0,0.0,0.0,0.0,0.0
23858,0,0,55,97,0,0,0,0,100,0,32,68,32,68,50,50,0,0,0,0,0,0,78.0,0.0,468.0,578.0,0.0,0.0,0.0,0.0
23891,0,0,55,98,0,0,0,0,100,0,31,69,31,69,50,50,0,0,0,0,0,0,76.0,0.0,465.0,582.0,0.0,0.0,0.0,0.0
23924,0,0,54,98,0,0,0,0,100,0,31,69,31,69,50,50,0,0,0,0,0,0,75.0,0.0,460.0,582.0,0.0,0.0,0.0,0.0
23957,0,0,53,99,0,0,0,0,100,0,31,69,31,69,50,50,0,0,0,0,0,0,70.0,0.0,457.0,586.0,0.0,0.0,0.0,0.0
23990,0,0,52,99,0,0,0,0,100,0,30,70,30,70,50,50,0,0,0,0,0,0,70.0,0.0,449.0,586.0,0.0,0.0,0.0,0.0
24023,0,0,51,99,0,0,0,0,100,0,30,70,30,70,50,50,0,0,0,0,0,0,67.0,0.0,443.0,587.0,0.0,0.0,0.0,0.0
24056,0,0,49,98,0,0,0,0,100,0,29,71,29,71,50,50,0,0,0,0,0,0,65.0,0.0,430.0,583.0,0.0,0.0,0.0,0.0
24089,0,0,47,96,0,0,0,0,100,0,29,71,29,71,50,50,0,0,0,0,0,0,60.0,0.0,419.0,571.0,2.0,0.0,0.0,0.0
24122,0,0,45,92,0,0,0,0,100,0,29,71,29,71,50,50,0,0,0,0,0,0,59.0,0.0,404.0,553.0,17.0,0.0,1.0,3.0
24155,0,0,43,87,0,0,0,0,100,0,29,71,29,71,50,50,0,0,0,0,0,0,58.0,0.0,393.0,528.0,26.0,0.0,18.0,9.0
24188,0,0,41,79,0,0,0,0,100,0,29,71,29,71,50,50,0,0,0,0,0,0,58.0,0.0,377.0,489.0,35.0,0.0,45.0,51.0
24221,0,0,39,69,0,0,0,14,88,12,27,73,31,69,0,100,0,0,0,0,0,0,55.0,0.0,364.0,439.0,44.0,0.0,78.0,164.0
24254,0,0,36,52,0,0,0,40,68,32,24,76,36,64,0,100,0,0,0,0,0,0,52.0,0.0,348.0,353.0,53.0,3.0,114.0,293.0
24287,0,0,33,21,0,0,4,59,48,52,28,72,56,44,5,95,0,0,0,0,0,0,52.0,0.0,329.0,199.0,64.0,9.0,148.0,386.0
24320,0,0,28,2,0,0,11,71,27,73,31,69,90,10,11,89,0,0,0,0,0,0,51.0,0.0,300.0,102.0,79.0,18.0,193.0,449.0
24353,0,0,22,0,0,0,18,80,18,82,29,71,98,2,16,84,0,0,0,0,0,0,46.0,0.0,259.0,91.0,93.0,30.0,237.0,491.0
24386,0,0,12,0,0,0,26,86,10,90,27,73,100,0,20,80,0,0,0,0,0,0,42.0,0.0,200.0,57.0,114.0,47.0,284.0,521.0
24419,0,0,3,0,1,0,32,87,2,98,25,75,100,0,24,76,0,0,0,0,0,0,37.0,0.0,141.0,31.0,130.0,67.0,321.0,527.0
24452,0,0,0,0,5,0,36,87,0,100,28,72,50,50,28,72,0,0,0,0,0,0,34.0,0.0,105.0,16.0,157.0,86.0,347.0,527.0
24485,0,0,0,0,9,0,39,87,0,100,31,69,50,50,31,69,0,0,0,0,0,0,28.0,0.0,83.0,10.0,181.0,100.0,366.0,525.0
24518,0,0,0,0,14,0,41,87,0,100,34,66,50,50,34,66,0,0,0,0,0,0,26.0,0.0,76.0,4.0,208.0,110.0,380.0,526.0
24551,0,0,0,0,16,0,44,85,0,100,37,63,50,50,37,63,0,0,0,0,0,0,23.0,0.0,69.0,1.0,224.0,120.0,401.0,519.0
24584,0,0,0,0,18,0,46,83,0,100,39,61,50,50,39,61,0,0,0,0,0,0,24.0,0.0,65.0,0.0,236.0,118.0,411.0,508.0
24617,0,0,0,0,19,0,48,82,0,100,40,60,50,50,40,60,0,0,0,0,0,0,21.0,0.0,59.0,0.0,243.0,123.0,422.0,502.0
24650,0,0,0,0,20,0,50,81,0,100,42,58,50,50,42,58,0,0,0,0,0,0,22.0,0.0,56.0,0.0,249.0,124.0,437.0,498.0
24683,0,0,0,0,20,0,51,80,0,100,42,58,50,50,42,58,0,0,0,0,0,0,22.0,0.0,50.0,0.0,249.0,119.0,442.0,494.0
24716,0,0,0,0,20,0,52,80,0,100,43,57,50,50,43,57,0,0,0,0,0,0,21.0,0.0,47.0,0.0,251.0,117.0,450.0,492.0
24749,0,0,0,0,21,0,54,78,0,100,44,56,50,50,44,56,0,0,0,0,0,0,18.0,0.0,45.0,0.0,256.0,116.0,459.0,484.0
24782,0,0,0,0,22,0,55,77,0,100,45,55,50,50,45,55,0,0,0,0,0,0,19.0,0.0,43.0,0.0,261.0,118.0,469.0,476.0
24815,0,0,0,0,22,0,56,75,0,100,46,54,50,50,46,54,0,0,0,0,0,0,18.0,0.0,41.0,0.0,263.0,117.0,474.0,467.0
24848,0,0,0,0,23,0,57,73,0,100,48,52,50,50,48,52,0,0,0,0,0,0,15.0,0.0,35.0,0.0,269.0,116.0,481.0,457.0
24881,0,0,0,0,24,0,59,71,0,100,49,51,50,50,49,51,0,0,0,0,0,0,16.0,0.0,39.0,0.0,273.0,117.0,490.0,448.0
24914,0,0,0,0,24,0,59,69,0,100,50,50,50,50,50,50,0,0,0,0,0,0,17.0,0.0,40.0,0.0,272.0,116.0,493.0,438.0
24947,0,0,0,0,24,0,60,63,0,100,52,48,50,50,52,48,0,0,0,0,0,0,30.0,0.0,61.0,0.0,276.0,115.0,498.0,409.0
24980,0,0,0,0,24,0,60,57,0,100,55,45,50,50,55,45,0,0,0,0,0,0,46.0,0.0,112.0,0.0,272.0,114.0,501.0,375.0
25013,0,0,6,0,23,0,60,52,4,96,59,41,100,0,57,43,0,0,0,0,0,0,63.0,1.0,158.0,0.0,268.0,112.0,501.0,351.0
25046,0,0,13,0,22,0,60,45,9,91,63,37,100,0,60,40,0,0,0,0,0,0,80.0,2.0,202.0,0.0,261.0,109.0,497.0,315.0
25079,0,0,19,0,21,0,59,33,14,86,71,29,100,0,66,34,0,0,0,0,0,0,94.0,2.0,243.0,0.0,252.0,109.0,490.0,255.0
25112,0,0,25,0,19,0,57,18,20,80,82,18,100,0,77,23,0,0,0,0,0,0,105.0,3.0,277.0,0.0,242.0,103.0,477.0,180.0
25145,0,0,29,0,17,0,54,3,28,72,96,4,100,0,95,5,0,0,0,0,0,0,112.0,3.0,303.0,10.0,228.0,102.0,459.0,105.0
25178,0,0,33,0,15,0,51,0,33,67,100,0,100,0,100,0,0,0,0,0,0,0,117.0,2.0,328.0,39.0,214.0,101.0,442.0,60.0
25211,0,0,36,18,12,0,46,0,49,51,80,20,61,39,100,0,0,0,0,0,0,0,118.0,0.0,345.0,183.0,196.0,97.0,408.0,36.0
25244,0,0,38,50,9,0,37,0,65,35,58,42,38,62,100,0,0,0,0,0,0,0,121.0,0.0,359.0,340.0,180.0,94.0,355.0,16.0
25277,0,0,40,69,6,0,26,0,77,23,46,54,32,68,100,0,0,0,0,0,0,0,120.0,0.0,373.0,436.0,159.0,80.0,286.0,41.0
25310,0,0,42,82,3,0,14,0,87,13,37,63,30,70,100,0,0,0,0,0,0,0,118.0,0.0,388.0,500.0,142.0,65.0,208.0,39.0
25343,0,0,45,91,0,0,4,0,97,3,31,69,29,71,100,0,0,0,0,0,0,0,120.0,0.0,407.0,549.0,118.0,51.0,145.0,30.0
25376,0,0,48,97,0,0,0,0,100,0,29,71,29,71,50,50,0,0,0,0,0,0,117.0,0.0,425.0,575.0,93.0,31.0,92.0,26.0
25409,0,0,51,99,0,0,0,0,100,0,30,70,30,70,50,50,0,0,0,0,0,0,112.0,0.0,441.0,587.0,66.0,11.0,68.0,17.0
25442,0,0,52,99,0,0,0,0,100,0,30,70,30,70,50,50,0,0,0,0,0,0,107.0,0.0,449.0,589.0,43.0,1.0,40.0,9.0
25475,0,0,53,99,0,0,0,0,100,0,30,70,30,70,50,50,0,0,0,0,0,0,104.0,0.0,455.0,588.0,32.0,0.0,29.0,1.0
25508,0,0,54,98,0,0,0,0,100,0,31,69,31,69,50,50,0,0,0,0,0,0,100.0,0.0,460.0,581.0,24.0,0.0,18.0,0.0
25541,0,0,54,98,0,0,0,0,100,0,31,69,31,69,50,50,0,0,0,0,0,0,101.0,0.0,462.0,580.0,19.0,0.0,12.0,0.0
25574,0,0,54,98,0,0,0,0,100,0,31,69,31,69,50,50,0,0,0,0,0,0,99.0,0.0,463.0,580.0,7.0,0.0,3.0,0.0
25607,0,0,54,98,0,0,0,0,100,0,31,69,31,69,50,50,0,0,0,0,0,0,96.0,0.0,462.0,584.0,5.0,0.0,0.0,0.0
25640,0,0,53,100,0,0,0,0,100,0,30,70,30,70,50,50,0,0,0,0,0,0,92.0,0.0,456.0,592.0,3.0,0.0,0.0,0.0
25673,0,0,52,100,0,0,0,0,100,0,30,70,30,70,50,50,0,0,0,0,0,0,85.0,0.0,445.0,599.0,1.0,0.0,0.0,0.0
25706,0,0,46,100,0,0,0,0,100,0,28,72,28,72,50,50,0,0,0,0,0,0,74.0,0.0,413.0,624.0,0.0,0.0,0.0,0.0
25739,0,0,41,100,0,0,0,0,100,0,25,75,25,75,50,50,0,0,0,0,0,0,64.0,0.0,379.0,634.0,0.0,0.0,0.0,0.0
25772,0,0,36,100,0,0,0,0,100,0,23,77,23,77,50,50,0,0,0,0,0,0,54.0,0.0,349.0,637.0,0.0,0.0,0.0,0.0
25805,0,0,32,100,0,0,0,0,100,0,21,79,21,79,50,50,0,0,0,0,0,0,49.0,0.0,320.0,642.0,0.0,0.0,0.0,0.0
25838,0,0,27,100,0,0,0,0,100,0,18,82,18,82,50,50,0,0,0,0,0,0,45.0,0.0,293.0,647.0,0.0,0.0,0.0,0.0
25871,0,0,24,100,0,0,0,0,100,0,16,84,16,84,50,50,0,0,0,0,0,0,38.0,0.0,270.0,653.0,0.0,0.0,0.0,0.0
25904,0,0,20,100,0,0,0,0,100,0,14,86,14,86,50,50,0,0,0,0,0,0,30.0,0.0,248.0,654.0,0.0,0.0,0.0,0.0
25937,0,0,17,100,0,0,0,0,100,0,12,88,12,88,50,50,0,0,0,0,0,0,27.0,0.0,231.0,654.0,0.0,0.0,0.0,0.0
25970,0,0,15,100,0,0,0,0,100,0,11,89,11,89,50,50,0,0,0,0,0,0,27.0,0.0,218.0,651.0,0.0,0.0,0.0,0.0
26003,0,0,14,100,0,0,0,0,100,0,10,90,10,90,50,50,0,0,0,0,0,0,26.0,0.0,212.0,647.0,0.0,0.0,0.0,0.0
26036,0,0,13,100,0,0,0,0,100,0,10,90,10,90,50,50,0,0,0,0,0,0,25.0,0.0,207.0,643.0,0.0,0.0,0.0,0.0
26069,0,0,13,100,0,0,0,0,100,0,9,91,9,91,50,50,0,0,0,0,0,0,25.0,0.0,203.0,636.0,0.0,0.0,0.0,0.0
26102,0,0,13,100,0,0,0,0,100,0,9,91,9,91,50,50,0,0,0,0,0,0,25.0,0.0,202.0,626.0,2.0,0.0,0.0,4.0
26135,0,0,14,100,0,0,0,0,100,0,10,90,10,90,50,50,0,0,0,0,0,0,32.0,0.0,210.0,593.0,16.0,0.0,7.0,26.0
26168,0,0,17,93,0,0,0,0,100,0,13,87,13,87,50,50,0,0,0,0,0,0,36.0,0.0,227.0,559.0,26.0,0.0,34.0,74.0
26201,0,0,19,85,0,0,0,8,92,8,14,86,15,85,0,100,0,0,0,0,0,0,42.0,0.0,242.0,517.0,33.0,0.0,72.0,131.0
26234,0,0,20,73,0,0,0,25,78,22,14,86,18,82,0,100,0,0,0,0,0,0,47.0,0.0,249.0,457.0,40.0,1.0,107.0,216.0
26267,0,0,21,55,0,0,3,43,62,38,17,83,24,76,6,94,0,0,0,0,0,0,51.0,0.0,256.0,367.0,53.0,7.0,143.0,306.0
26300,0,0,20,27,0,0,10,56,41,59,23,77,38,62,12,88,0,0,0,0,0,0,54.0,0.0,249.0,228.0,61.0,11.0,183.0,374.0
26333,0,0,18,6,0,0,16,69,22,78,27,73,69,31,16,84,0,0,0,0,0,0,55.0,0.0,234.0,123.0,77.0,19.0,223.0,436.0
26366,0,0,14,4,0,0,22,76,15,85,27,73,73,27,19,81,0,0,0,0,0,0,54.0,0.0,211.0,112.0,94.0,25.0,260.0,472.0
26399,0,0,8,0,0,0,27,82,7,93,26,74,100,0,21,79,0,0,0,0,0,0,53.0,0.0,176.0,72.0,111.0,30.0,292.0,500.0
26432,0,0,3,0,1,0,32,85,2,98,26,74,100,0,24,76,0,0,0,0,0,0,52.0,0.0,139.0,46.0,128.0,42.0,324.0,519.0
26465,0,0,0,0,4,0,36,87,0,100,28,72,50,50,28,72,0,0,0,0,0,0,51.0,0.0,115.0,22.0,150.0,55.0,345.0,525.0
26498,0,0,0,0,7,0,39,87,0,100,30,70,50,50,30,70,0,0,0,0,0,0,52.0,0.0,94.0,11.0,168.0,64.0,366.0,529.0
26531,0,0,0,0,11,0,42,87,0,100,34,66,50,50,34,66,0,0,0,0,0,0,55.0,0.0,80.0,5.0,193.0,74.0,388.0,527.0
26564,0,0,0,0,12,0,45,85,0,100,36,64,50,50,36,64,0,0,0,0,0,0,57.0,0.0,70.0,0.0,201.0,78.0,405.0,519.0
26597,0,0,0,0,15,0,47,83,0,100,38,62,50,50,38,62,0,0,0,0,0,0,58.0,0.0,62.0,0.0,215.0,78.0,419.0,507.0
26630,0,0,0,0,15,0,50,80,0,100,40,60,50,50,40,60,0,0,0,0,0,0,63.0,0.0,58.0,0.0,219.0,79.0,433.0,494.0
26663,0,0,0,0,15,0,51,78,0,100,41,59,50,50,41,59,0,0,0,0,0,0,63.0,0.0,54.0,0.0,219.0,80.0,443.0,483.0
26696,0,0,0,0,16,0,53,77,0,100,42,58,50,50,42,58,0,0,0,0,0,0,68.0,0.0,51.0,0.0,222.0,84.0,454.0,476.0
26729,0,0,0,0,16,0,55,75,0,100,44,56,50,50,44,56,0,0,0,0,0,0,68.0,0.0,50.0,0.0,223.0,84.0,469.0,469.0
26762,0,0,0,0,16,0,57,74,0,100,45,55,50,50,45,55,0,0,0,0,0,0,73.0,0.0,49.0,0.0,226.0,85.0,481.0,460.0
26795,0,0,0,0,17,0,59,70,0,100,47,53,50,50,47,53,0,0,0,0,0,0,73.0,0.0,45.0,0.0,229.0,82.0,494.0,444.0
26828,0,0,0,0,17,0,61,66,0,100,49,51,50,50,49,51,0,0,0,0,0,0,75.0,0.0,48.0,0.0,231.0,81.0,505.0,421.0
26861,0,0,0,0,18,0,63,61,0,100,52,48,50,50,52,48,0,0,0,0,0,0,76.0,0.0,59.0,0.0,234.0,81.0,515.0,398.0
26894,0,0,0,0,19,0,64,55,0,100,56,44,50,50,56,44,0,0,0,0,0,0,77.0,0.0,73.0,0.0,241.0,86.0,526.0,365.0
26927,0,0,0,0,19,0,66,47,0,100,60,40,50,50,60,40,0,0,0,0,0,0,80.0,0.0,92.0,0.0,243.0,86.0,536.0,325.0
26960,0,0,0,0,19,0,67,36,0,100,66,34,50,50,66,34,0,0,0,0,0,0,83.0,0.0,118.0,0.0,244.0,86.0,541.0,270.0
26993,0,0,4,0,20,0,68,24,3,97,76,24,100,0,75,25,0,0,0,0,0,0,94.0,0.0,149.0,0.0,251.0,90.0,551.0,211.0
27026,0,0,10,0,21,0,69,11,8,92,88,12,100,0,87,13,0,0,0,0,0,0,106.0,0.0,183.0,0.0,253.0,96.0,557.0,145.0
27059,0,0,14,0,21,0,69,0,13,87,100,0,100,0,100,0,0,0,0,0,0,0,122.0,3.0,212.0,0.0,254.0,97.0,557.0,72.0
27092,1,0,20,0,21,0,70,0,19,81,100,0,100,0,100,0,0,0,0,0,0,0,132.0,3.0,247.0,0.0,257.0,101.0,560.0,29.0
27125,2,0,27,0,21,0,69,0,24,76,100,0,100,0,100,0,0,0,0,0,0,0,138.0,4.0,291.0,0.0,256.0,107.0,557.0,0.0
27158,3,0,33,0,21,0,68,0,29,71,100,0,100,0,100,0,0,0,0,0,0,0,143.0,2.0,328.0,0.0,253.0,111.0,550.0,0.0
27191,4,0,37,0,20,0,66,0,32,68,100,0,100,0,100,0,0,0,0,0,0,0,146.0,1.0,357.0,0.0,248.0,112.0,536.0,0.0
27224,4,0,41,0,19,0,63,0,35,65,100,0,100,0,100,0,0,0,0,0,0,0,146.0,0.0,381.0,16.0,239.0,112.0,518.0,0.0
27257,4,0,45,0,17,0,60,0,39,61,100,0,100,0,100,0,0,0,0,0,0,0,148.0,0.0,405.0,42.0,231.0,116.0,497.0,0.0
27290,4,0,49,5,16,0,55,0,45,55,94,6,88,12,100,0,0,0,0,0,0,0,151.0,0.0,428.0,118.0,220.0,117.0,466.0,0.0
27323,5,0,53,25,13,0,48,0,58,42,79,21,65,35,100,0,0,0,0,0,0,0,156.0,0.0,453.0,219.0,203.0,113.0,421.0,0.0
27356,7,0,56,40,10,0,35,0,69,31,69,31,56,44,100,0,0,0,0,0,0,0,164.0,1.0,474.0,291.0,183.0,97.0,342.0,0.0
27389,8,0,60,51,5,0,21,0,81,19,60,40,52,48,100,0,0,0,0,0,0,0,173.0,2.0,497.0,348.0,157.0,71.0,255.0,0.0
27422,9,0,63,61,1,0,8,0,92,8,52,48,49,51,100,0,0,0,0,0,0,0,177.0,1.0,514.0,396.0,130.0,46.0,176.0,13.0
27455,9,0,64,70,0,0,0,0,100,0,46,54,46,54,50,50,0,0,0,0,0,0,179.0,0.0,524.0,441.0,99.0,26.0,110.0,22.0
27488,8,0,65,76,0,0,0,0,100,0,44,56,44,56,50,50,0,0,0,0,0,0,176.0,0.0,531.0,471.0,73.0,6.0,71.0,21.0
27521,8,0,66,79,0,0,0,0,100,0,43,57,43,57,50,50,0,0,0,0,0,0,171.0,0.0,535.0,486.0,56.0,0.0,51.0,20.0
27554,6,0,66,81,0,0,0,0,100,0,42,58,42,58,50,50,0,0,0,0,0,0,162.0,0.0,533.0,497.0,43.0,0.0,36.0,18.0
27587,5,0,65,84,0,0,0,0,100,0,40,60,40,60,50,50,0,0,0,0,0,0,152.0,0.0,528.0,511.0,32.0,0.0,22.0,15.0
27620,3,0,64,86,0,0,0,0,100,0,39,61,39,61,50,50,0,0,0,0,0,0,142.0,0.0,522.0,523.0,30.0,0.0,11.0,11.0
27653,2,0,62,88,0,0,0,0,100,0,38,62,38,62,50,50,0,0,0,0,0,0,134.0,0.0,513.0,531.0,20.0,0.0,7.0,9.0
27686,1,0,62,89,0,0,0,0,100,0,37,63,37,63,50,50,0,0,0,0,0,0,127.0,0.0,510.0,536.0,17.0,0.0,2.0,8.0
27719,0,0,62,89,0,0,0,0,100,0,36,64,36,64,50,50,0,0,0,0,0,0,125.0,0.0,509.0,539.0,13.0,0.0,0.0,7.0
27752,0,0,62,90,0,0,0,0,100,0,36,64,36,64,50,50,0,0,0,0,0,0,125.0,0.0,508.0,540.0,8.0,0.0,0.0,7.0
27785,1,0,61,89,0,0,0,0,100,0,36,64,36,64,50,50,0,0,0,0,0,0,127.0,0.0,507.0,538.0,7.0,0.0,0.0,5.0
27818,0,0,62,89,0,0,0,0,100,0,36,64,36,64,50,50,0,0,0,0,0,0,122.0,0.0,508.0,537.0,6.0,0.0,0.0,6.0
27851,0,0,61,89,0,0,0,0,100,0,36,64,36,64,50,50,0,0,0,0,0,0,124.0,0.0,505.0,535.0,6.0,0.0,0.0,9.0
27884,0,0,61,88,0,0,0,0,100,0,36,64,36,64,50,50,0,0,0,0,0,0,124.0,0.0,506.0,534.0,4.0,0.0,0.0,7.0
27917,0,0,60,88,0,0,0,0,100,0,36,64,36,64,50,50,0,0,0,0,0,0,126.0,0.0,500.0,530.0,8.0,0.0,0.0,10.0
27950,1,0,60,86,0,0,0,0,100,0,37,63,37,63,50,50,0,0,0,0,0,0,131.0,0.0,498.0,520.0,8.0,0.0,0.0,7.0
27983,2,0,60,83,0,0,0,0,100,0,38,62,38,62,50,50,0,0,0,0,0,0,134.0,0.0,495.0,507.0,19.0,0.0,0.0,11.0
28016,2,0,59,77,0,0,0,0,100,0,39,61,39,61,50,50,0,0,0,0,0,0,137.0,0.0,493.0,479.0,36.0,0.0,9.0,17.0
28049,3,0,59,71,0,0,0,0,100,0,42,58,42,58,50,50,0,0,0,0,0,0,139.0,1.0,491.0,445.0,51.0,0.0,42.0,21.0
28082,4,0,58,59,0,0,0,0,100,0,47,53,47,53,50,50,0,0,0,0,0,0,149.0,2.0,486.0,386.0,63.0,7.0,76.0,28.0
28115,6,0,58,42,0,0,0,0,100,0,56,44,56,44,50,50,0,0,0,0,0,0,161.0,5.0,486.0,300.0,81.0,25.0,117.0,36.0
28148,9,0,58,19,0,0,10,0,89,11,76,24,73,27,100,0,0,0,0,0,0,0,179.0,6.0,483.0,189.0,104.0,43.0,183.0,44.0
28181,12,0,57,0,0,0,21,0,75,25,100,0,100,0,100,0,0,0,0,0,0,0,198.0,9.0,478.0,68.0,125.0,70.0,255.0,48.0
28214,16,0,56,0,5,0,32,0,65,35,100,0,100,0,100,0,0,0,0,0,0,0,221.0,14.0,472.0,36.0,154.0,90.0,323.0,53.0
28247,18,0,54,0,11,0,41,0,58,42,100,0,100,0,100,0,0,0,0,0,0,0,237.0,21.0,463.0,19.0,193.0,108.0,379.0,64.0
28280,20,0,53,0,20,1,47,0,50,50,100,0,100,0,100,0,0,0,0,0,0,0,249.0,23.0,452.0,0.0,245.0,128.0,419.0,79.0
28313,22,0,50,0,26,4,52,0,48,52,100,0,100,0,100,0,0,0,0,0,0,0,263.0,29.0,437.0,0.0,285.0,145.0,450.0,89.0
28346,23,0,47,0,32,6,57,1,42,58,99,1,100,0,98,2,0,0,0,0,0,0,267.0,31.0,414.0,0.0,326.0,159.0,479.0,96.0
28379,21,0,43,0,37,9,61,0,38,62,99,1,100,0,99,1,0,0,0,0,0,0,257.0,29.0,393.0,0.0,357.0,177.0,507.0,91.0
28412,18,0,39,0,40,10,64,0,34,66,100,0,100,0,100,0,0,0,0,0,0,0,236.0,26.0,365.0,0.0,376.0,187.0,526.0,73.0
28445,14,0,34,0,43,12,68,0,29,71,100,0,100,0,100,0,0,0,0,0,0,0,213.0,20.0,337.0,0.0,392.0,199.0,547.0,53.0
28478,10,0,31,0,45,14,70,0,25,75,100,0,100,0,100,0,0,0,0,0,0,0,188.0,17.0,318.0,0.0,405.0,209.0,563.0,35.0
28511,8,0,29,0,48,17,72,0,22,78,100,0,100,0,100,0,0,0,0,0,0,0,170.0,9.0,305.0,0.0,422.0,227.0,573.0,17.0
28544,6,0,27,0,50,18,74,0,20,80,100,0,100,0,100,0,0,0,0,0,0,0,161.0,11.0,290.0,0.0,438.0,236.0,585.0,0.0
28577,5,0,26,0,52,19,75,0,19,81,100,0,100,0,100,0,0,0,0,0,0,0,155.0,12.0,285.0,0.0,451.0,244.0,591.0,0.0
28610,5,0,26,0,54,21,76,0,18,82,100,0,100,0,100,0,0,0,0,0,0,0,153.0,13.0,287.0,0.0,462.0,254.0,598.0,0.0
28643,5,0,27,0,56,22,76,0,18,82,100,0,100,0,100,0,0,0,0,0,0,0,152.0,13.0,290.0,0.0,470.0,258.0,601.0,0.0
28676,5,0,28,0,57,22,77,0,19,81,100,0,100,0,100,0,0,0,0,0,0,0,157.0,17.0,298.0,0.0,478.0,261.0,603.0,0.0
28709,6,0,30,0,57,23,77,0,20,80,100,0,100,0,100,0,0,0,0,0,0,0,162.0,16.0,311.0,0.0,478.0,264.0,602.0,0.0
28742,7,0,32,0,56,23,76,0,22,78,100,0,100,0,100,0,0,0,0,0,0,0,168.0,14.0,324.0,0.0,475.0,264.0,601.0,0.0
28775,8,0,35,0,56,22,76,0,23,77,100,0,100,0,100,0,0,0,0,0,0,0,175.0,16.0,339.0,0.0,471.0,261.0,595.0,0.0
28808,10,0,37,0,54,21,75,0,25,75,100,0,100,0,100,0,0,0,0,0,0,0,186.0,18.0,356.0,0.0,462.0,257.0,590.0,0.0
28841,11,0,40,0,52,20,74,0,28,72,100,0,100,0,100,0,0,0,0,0,0,0,194.0,16.0,376.0,0.0,450.0,250.0,586.0,0.0
28874,12,0,43,0,51,20,73,0,29,71,100,0,100,0,100,0,0,0,0,0,0,0,198.0,17.0,389.0,0.0,443.0,248.0,582.0,0.0
28907,13,0,45,0,48,19,71,0,31,69,100,0,100,0,100,0,0,0,0,0,0,0,207.0,19.0,404.0,0.0,423.0,241.0,568.0,0.0
28940,14,0,47,0,47,18,69,0,33,67,100,0,100,0,100,0,0,0,0,0,0,0,208.0,18.0,418.0,0.0,415.0,236.0,557.0,0.0
28973,14,0,49,0,44,16,67,0,35,65,100,0,100,0,100,0,0,0,0,0,0,0,211.0,18.0,428.0,0.0,397.0,224.0,541.0,0.0
29006,14,0,50,0,41,15,65,0,36,64,100,0,100,0,100,0,0,0,0,0,0,0,208.0,16.0,438.0,0.0,378.0,218.0,532.0,0.0
29039,13,0,51,0,38,14,63,0,37,63,100,0,100,0,100,0,0,0,0,0,0,0,204.0,16.0,442.0,18.0,358.0,213.0,518.0,0.0
29072,13,0,52,0,34,13,60,0,39,61,100,0,100,0,100,0,0,0,0,0,0,0,205.0,14.0,450.0,41.0,337.0,203.0,500.0,0.0
29105,13,0,54,0,30,11,57,0,42,58,100,0,100,0,100,0,0,0,0,0,0,0,204.0,16.0,463.0,70.0,312.0,193.0,480.0,0.0
29138,13,0,56,10,27,10,54,0,49,51,92,8,85,15,100,0,0,0,0,0,0,0,206.0,13.0,473.0,141.0,291.0,185.0,460.0,0.0
29171,14,0,58,27,23,7,48,0,57,43,82,18,68,32,100,0,0,0,0,0,0,0,208.0,14.0,483.0,225.0,264.0,166.0,426.0,0.0
29204,15,0,60,40,16,1,39,0,67,33,73,27,60,40,100,0,0,0,0,0,0,0,215.0,10.0,496.0,291.0,222.0,132.0,369.0,0.0
29237,15,0,62,51,8,0,26,0,78,22,64,36,56,44,100,0,0,0,0,0,0,0,217.0,11.0,513.0,345.0,173.0,93.0,288.0,0.0
29270,15,0,64,61,2,0,13,0,89,11,56,44,51,49,100,0,0,0,0,0,0,0,215.0,8.0,524.0,398.0,136.0,57.0,206.0,0.0
29303,14,0,65,69,0,0,0,0,99,1,48,52,48,52,100,0,0,0,0,0,0,0,210.0,9.0,528.0,438.0,100.0,27.0,122.0,0.0
29336,13,0,66,75,0,0,0,0,100,0,46,54,46,54,50,50,0,0,0,0,0,0,204.0,5.0,533.0,465.0,78.0,8.0,76.0,0.0
29369,11,0,66,78,0,0,0,0,100,0,45,55,45,55,50,50,0,0,0,0,0,0,194.0,4.0,535.0,480.0,59.0,2.0,53.0,0.0
29402,9,0,65,82,0,0,0,0,100,0,43,57,43,57,50,50,0,0,0,0,0,0,181.0,3.0,531.0,501.0,41.0,0.0,32.0,0.0
29435,7,0,64,85,0,0,0,0,100,0,41,59,41,59,50,50,0,0,0,0,0,0,166.0,1.0,524.0,517.0,32.0,0.0,21.0,3.0
29468,5,0,63,87,0,0,0,0,100,0,39,61,39,61,50,50,0,0,0,0,0,0,153.0,0.0,516.0,528.0,26.0,0.0,12.0,4.0
29501,3,0,62,90,0,0,0,0,100,0,37,63,37,63,50,50,0,0,0,0,0,0,141.0,0.0,508.0,541.0,20.0,0.0,4.0,4.0
29534,1,0,60,92,0,0,0,0,100,0,35,65,35,65,50,50,0,0,0,0,0,0,131.0,0.0,498.0,553.0,13.0,0.0,1.0,3.0
29567,0,0,59,93,0,0,0,0,100,0,34,66,34,66,50,50,0,0,0,0,0,0,123.0,0.0,489.0,556.0,11.0,0.0,0.0,5.0
29600,0,0,58,94,0,0,0,0,100,0,33,67,33,67,50,50,0,0,0,0,0,0,119.0,0.0,483.0,561.0,10.0,0.0,0.0,4.0
29633,0,0,57,94,0,0,0,0,100,0,33,67,33,67,50,50,0,0,0,0,0,0,111.0,0.0,477.0,564.0,8.0,0.0,0.0,3.0
29666,0,0,56,95,0,0,0,0,100,0,32,68,32,68,50,50,0,0,0,0,0,0,109.0,0.0,471.0,566.0,8.0,0.0,0.0,6.0
29699,0,0,55,96,0,0,0,0,100,0,32,68,32,68,50,50,0,0,0,0,0,0,105.0,0.0,465.0,570.0,6.0,0.0,0.0,3.0
29732,0,0,54,96,0,0,0,0,100,0,32,68,32,68,50,50,0,0,0,0,0,0,104.0,0.0,461.0,570.0,5.0,0.0,0.0,5.0
29765,0,0,53,95,0,0,0,0,100,0,31,69,31,69,50,50,0,0,0,0,0,0,102.0,0.0,453.0,568.0,4.0,0.0,0.0,10.0
29798,0,0,52,95,0,0,0,0,100,0,31,69,31,69,50,50,0,0,0,0,0,0,100.0,1.0,445.0,565.0,9.0,0.0,0.0,9.0
29831,0,0,52,93,0,0,0,0,100,0,31,69,31,69,50,50,0,0,0,0,0,0,102.0,1.0,446.0,557.0,18.0,0.0,0.0,8.0
29864,0,0,51,90,0,0,0,0,100,0,32,68,32,68,50,50,0,0,0,0,0,0,105.0,3.0,442.0,541.0,32.0,0.0,6.0,13.0
29897,0,0,51,85,0,0,0,0,100,0,33,67,33,67,50,50,0,0,0,0,0,0,106.0,3.0,442.0,518.0,46.0,0.0,19.0,19.0
29930,0,0,51,79,0,0,0,0,100,0,34,66,34,66,50,50,0,0,0,0,0,0,111.0,5.0,439.0,486.0,58.0,0.0,47.0,40.0
29963,0,0,50,70,0,0,0,0,100,0,37,63,37,63,50,50,0,0,0,0,0,0,118.0,6.0,436.0,444.0,67.0,9.0,70.0,82.0
29996,0,0,50,56,0,0,0,6,94,6,40,60,42,58,0,100,0,0,0,0,0,0,125.0,8.0,434.0,373.0,80.0,17.0,97.0,121.0
30029,2,0,50,37,0,0,1,13,85,15,47,53,53,47,9,91,0,0,0,0,0,0,137.0,6.0,434.0,278.0,93.0,30.0,130.0,156.0
30062,4,0,49,19,0,0,8,21,71,29,56,44,70,30,23,77,0,0,0,0,0,0,151.0,12.0,430.0,185.0,108.0,40.0,170.0,196.0
30095,8,0,48,0,0,0,14,31,55,45,65,35,100,0,27,73,0,0,0,0,0,0,170.0,16.0,426.0,76.0,121.0,53.0,211.0,247.0
30128,10,0,48,0,1,0,19,40,49,51,62,38,100,0,30,70,0,0,0,0,0,0,187.0,16.0,421.0,72.0,131.0,64.0,239.0,290.0
30161,13,0,47,0,4,0,21,48,45,55,59,41,100,0,30,70,0,0,0,0,0,0,203.0,20.0,419.0,50.0,146.0,69.0,257.0,333.0
30194,16,0,46,0,5,0,24,57,41,59,57,43,100,0,30,70,0,0,0,0,0,0,220.0,24.0,409.0,22.0,157.0,78.0,275.0,377.0
30227,17,0,43,0,7,0,26,64,38,62,55,45,100,0,30,70,0,0,0,0,0,0,232.0,25.0,393.0,4.0,165.0,77.0,287.0,412.0
30260,19,0,41,0,8,0,28,70,35,65,53,47,100,0,30,70,0,0,0,0,0,0,241.0,25.0,378.0,0.0,174.0,82.0,297.0,443.0
30293,18,0,37,0,9,0,29,74,33,67,51,49,100,0,30,70,0,0,0,0,0,0,236.0,26.0,357.0,0.0,179.0,85.0,307.0,464.0
30326,16,0,34,0,11,0,32,77,29,71,50,50,100,0,32,68,0,0,0,0,0,0,226.0,24.0,337.0,0.0,194.0,89.0,326.0,478.0
30359,14,0,30,0,12,0,35,79,26,74,49,51,100,0,33,67,0,0,0,0,0,0,210.0,20.0,309.0,0.0,197.0,91.0,342.0,485.0
30392,11,0,26,0,14,0,37,79,22,78,48,52,100,0,35,65,0,0,0,0,0,0,190.0,19.0,288.0,0.0,209.0,95.0,354.0,487.0
30425,9,0,24,0,14,0,39,79,20,80,48,52,100,0,36,64,0,0,0,0,0,0,179.0,18.0,273.0,0.0,213.0,94.0,365.0,485.0
30458,8,0,22,0,16,0,40,78,18,82,48,52,100,0,37,63,0,0,0,0,0,0,170.0,19.0,259.0,0.0,224.0,101.0,374.0,482.0
30491,7,0,20,0,17,0,42,77,16,84,48,52,100,0,39,61,0,0,0,0,0,0,169.0,19.0,248.0,0.0,231.0,107.0,388.0,477.0
30524,7,0,19,0,19,0,44,76,16,84,49,51,100,0,40,60,0,0,0,0,0,0,168.0,20.0,244.0,0.0,239.0,111.0,396.0,471.0
30557,7,0,19,0,20,0,45,74,16,84,51,49,100,0,42,58,0,0,0,0,0,0,168.0,20.0,244.0,0.0,250.0,114.0,405.0,462.0
30590,8,0,19,0,22,0,46,74,16,84,51,49,100,0,43,57,0,0,0,0,0,0,170.0,20.0,244.0,0.0,258.0,121.0,413.0,464.0
30623,8,0,20,0,22,0,47,74,16,84,52,48,100,0,43,57,0,0,0,0,0,0,172.0,23.0,251.0,0.0,259.0,121.0,414.0,461.0
30656,9,0,22,0,23,0,47,73,17,83,53,47,100,0,44,56,0,0,0,0,0,0,177.0,20.0,260.0,0.0,264.0,122.0,415.0,459.0
30689,9,0,24,0,22,0,47,72,19,81,54,46,100,0,44,56,0,0,0,0,0,0,180.0,21.0,271.0,0.0,262.0,122.0,415.0,452.0
30722,10,0,26,0,22,0,46,71,20,80,55,45,100,0,44,56,0,0,0,0,0,0,185.0,20.0,284.0,0.0,262.0,124.0,413.0,446.0
30755,11,0,28,0,23,0,47,70,21,79,56,44,100,0,45,55,0,0,0,0,0,0,190.0,18.0,298.0,0.0,265.0,124.0,417.0,441.0
30788,12,0,29,0,23,0,47,68,23,77,57,43,100,0,46,54,0,0,0,0,0,0,195.0,18.0,307.0,0.0,265.0,125.0,415.0,434.0
30821,13,0,32,0,23,0,47,68,24,76,58,42,100,0,46,54,0,0,0,0,0,0,202.0,19.0,322.0,0.0,265.0,125.0,414.0,432.0
30854,14,0,33,0,23,1,47,68,25,75,59,41,100,0,46,54,0,0,0,0,0,0,209.0,20.0,332.0,0.0,266.0,127.0,415.0,430.0
30887,14,0,35,0,23,1,46,67,26,74,59,41,100,0,46,54,0,0,0,0,0,0,208.0,20.0,340.0,0.0,269.0,130.0,413.0,426.0
30920,14,0,36,0,23,0,46,66,27,73,60,40,100,0,46,54,0,0,0,0,0,0,210.0,18.0,348.0,0.0,265.0,125.0,409.0,420.0
30953,14,0,38,0,23,1,45,64,28,72,61,39,100,0,47,53,0,0,0,0,0,0,211.0,19.0,360.0,0.0,264.0,127.0,407.0,414.0
