version
202
timestamp,L_value1,L_value2,L_value3,L_value4,R_value1,R_value2,R_value3,R_value4,COP_Left,COP_Right,COP_Front,COP_Back,COP_Left_Front,COP_Left_Back,COP_Right_Front,COP_Right_Back,L_ACC_X,L_ACC_Y,L_ACC_Z,R_ACC_X,R_ACC_Y,R_ACC_Z,L_value1_raw,L_value2_raw,L_value3_raw,L_value4_raw,R_value1_raw,R_value2_raw,R_value3_raw,R_value4_raw
70.0,0,0,0,0,0,0,0,0,50,50,50,50,50,50,50,50,0,33,0,112,100,0,0,0,0,20,0,0,0,57
93.0,0,0,0,0,0,0,0,0,50,50,50,50,50,50,50,50,0,33,0,112,100,0,0,0,0,20,0,0,0,57
115.0,0,0,0,0,0,0,0,0,50,50,50,50,50,50,50,50,0,33,0,112,100,0,0,0,0,20,0,0,0,57
136.0,0,0,0,0,0,0,0,0,50,50,50,50,50,50,50,50,0,70,0,112,100,0,1,1,0,18,0,0,0,57
166.0,0,0,0,0,0,0,0,0,50,50,50,50,50,50,50,50,0,70,0,112,100,0,1,1,0,18,0,0,0,57
196.0,0,0,0,0,0,0,0,0,50,50,50,50,50,50,50,50,0,34,0,112,100,0,0,0,1,18,0,0,0,57
225.0,0,0,0,0,0,0,0,0,50,50,50,50,50,50,50,50,0,53,0,0,115,0,0,0,0,18,0,0,0,46
255.0,0,0,0,0,0,0,0,0,50,50,50,50,50,50,50,50,0,0,0,0,107,0,0,0,0,17,0,0,0,42
286.0,0,0,0,0,0,0,0,0,50,50,50,50,50,50,50,50,0,24,0,0,107,0,0,0,0,19,0,0,0,42
316.0,0,0,0,0,0,0,0,0,50,50,50,50,50,50,50,50,0,24,0,0,127,0,0,0,0,19,1,0,0,48
345.0,0,0,0,0,0,0,0,0,50,50,50,50,50,50,50,50,0,24,0,0,94,0,0,0,0,36,0,1,0,50
376.0,0,0,0,0,0,0,0,0,50,50,50,50,50,50,50,50,0,23,0,0,94,0,1,0,0,41,0,1,0,50
406.0,0,0,0,0,0,0,0,0,50,50,50,50,50,50,50,50,0,23,0,0,94,0,1,0,0,41,0,1,0,50
435.0,0,0,0,0,0,0,0,0,50,50,50,50,50,50,50,50,0,23,0,0,68,0,1,0,0,41,1,2,0,41
465.0,0,0,0,0,0,0,0,0,50,50,50,50,50,50,50,50,0,42,0,0,89,0,0,0,0,90,0,0,0,40
496.0,0,0,0,10,0,0,0,0,100,0,0,100,0,100,50,50,0,0,0,0,89,0,0,0,0,170,0,0,0,40
526.0,0,0,0,6,0,0,0,0,66,34,0,100,0,100,50,50,0,0,0,0,44,0,0,0,0,152,0,0,0,29
556.0,0,0,0,6,0,0,0,0,66,34,0,100,0,100,50,50,0,0,0,0,66,0,0,0,0,152,0,0,0,33
586.0,0,0,0,6,0,0,0,0,66,34,0,100,0,100,50,50,0,0,0,0,77,0,0,0,0,152,0,0,0,33
615.0,0,0,0,66,0,0,0,0,100,0,0,100,0,100,50,50,0,56,0,0,62,0,2,0,0,448,0,0,1,36
646.0,0,0,0,83,0,0,0,0,100,0,0,100,0,100,50,50,0,26,0,0,62,0,0,0,0,531,0,0,1,36
676.0,0,0,0,87,0,0,0,0,100,0,0,100,0,100,50,50,27,39,0,0,75,0,0,0,0,553,0,0,0,46
706.0,0,0,0,87,0,0,0,0,100,0,0,100,0,100,50,50,27,39,0,0,83,0,0,0,0,553,0,0,0,56
736.0,0,0,0,95,0,0,0,0,100,0,0,100,0,100,50,50,0,0,0,0,83,0,1,0,0,592,0,0,0,56
765.0,0,0,0,95,0,0,0,0,100,0,0,100,0,100,50,50,0,0,0,0,64,0,1,0,0,592,1,0,0,68
796.0,0,0,0,95,0,0,0,0,100,0,0,100,0,100,50,50,0,0,0,0,64,0,1,0,0,592,1,0,0,68
826.0,0,0,0,95,0,0,0,0,100,0,0,100,0,100,50,50,0,0,0,0,64,0,1,0,0,592,1,0,0,68
856.0,0,0,0,45,0,0,0,0,100,0,0,100,0,100,50,50,0,0,0,0,97,0,0,0,0,343,0,0,0,101
885.0,0,0,0,59,0,0,0,0,100,0,0,100,0,100,50,50,0,0,0,0,101,0,0,0,0,417,0,0,0,107
915.0,0,0,0,0,0,0,0,0,50,50,50,50,50,50,50,50,0,0,0,0,101,0,0,0,0,119,0,0,0,107
946.0,0,0,0,4,0,0,0,1,62,38,0,100,0,100,0,100,0,0,0,0,106,0,0,0,0,143,0,0,0,126
976.0,0,0,0,4,0,0,0,1,59,41,0,100,0,100,0,100,0,0,0,0,87,0,0,0,0,144,0,0,0,131
1006.0,0,0,0,4,0,0,0,1,60,40,0,100,0,100,0,100,0,0,0,0,48,0,0,0,0,144,0,1,0,129
1036.0,0,0,0,4,0,0,0,2,57,43,0,100,0,100,0,100,0,0,0,0,75,0,0,0,0,144,0,0,0,134
1065.0,0,0,0,0,0,0,0,5,33,67,0,100,50,50,0,100,0,23,0,0,61,0,0,0,0,8,0,0,0,148
1096.0,0,0,0,0,0,0,0,16,0,100,0,100,50,50,0,100,0,19,0,0,32,0,0,0,1,3,0,0,0,203
1126.0,0,0,0,0,0,0,0,16,0,100,0,100,50,50,0,100,0,5,0,0,32,0,0,0,0,6,0,0,0,203
1156.0,0,0,0,0,0,0,0,16,0,100,0,100,50,50,0,100,0,5,0,0,32,0,0,0,0,6,0,0,0,203
1185.0,0,0,0,0,0,0,0,16,0,100,0,100,50,50,0,100,0,0,0,0,32,0,0,0,0,1,0,0,0,203
1215.0,0,0,0,0,0,0,0,100,0,100,0,100,50,50,0,100,0,0,0,0,62,0,0,0,0,2,0,0,0,634
1246.0,0,0,0,0,0,0,0,88,0,100,0,100,50,50,0,100,0,0,0,0,104,0,0,0,0,2,0,0,0,573
1276.0,0,0,0,0,0,0,0,88,0,100,0,100,50,50,0,100,0,0,0,0,104,0,0,0,0,2,0,0,0,573
1306.0,0,0,0,0,0,0,0,88,0,100,0,100,50,50,0,100,0,0,0,0,104,0,0,0,0,2,0,0,0,573
1336.0,0,0,0,0,0,0,0,88,0,100,0,100,50,50,0,100,0,6,0,0,104,0,0,0,0,0,0,0,0,573
1365.0,0,0,0,0,0,0,0,88,0,100,0,100,50,50,0,100,0,4,0,0,104,0,1,0,0,0,0,0,0,573
1395.0,0,0,0,0,0,0,0,99,0,100,0,100,50,50,0,100,0,4,0,54,104,0,1,0,0,0,0,0,0,630
1426.0,0,0,0,0,0,0,0,80,0,100,0,100,50,50,0,100,0,0,0,33,162,0,0,0,0,1,0,0,0,531
1456.0,0,0,0,0,0,0,0,80,0,100,0,100,50,50,0,100,0,0,0,33,162,0,0,0,0,1,0,0,0,531
1485.0,0,0,0,0,0,0,0,14,0,100,0,100,50,50,0,100,0,0,0,0,64,0,0,0,0,1,0,0,0,197
1515.0,0,0,0,0,0,0,0,4,33,67,0,100,50,50,0,100,0,0,0,3,133,0,0,0,0,1,0,0,0,142
1546.0,0,0,0,0,0,0,0,4,33,67,0,100,50,50,0,100,0,0,0,3,133,0,0,0,0,1,0,0,0,142
1575.0,0,0,0,0,0,0,0,0,50,50,50,50,50,50,50,50,0,0,0,0,129,0,0,0,0,1,0,0,0,48
1606.0,0,0,0,0,0,0,0,0,50,50,50,50,50,50,50,50,0,0,0,0,129,0,0,0,0,0,0,0,0,48
1636.0,0,0,0,0,0,0,0,0,50,50,50,50,50,50,50,50,0,0,0,0,95,0,0,0,0,0,0,0,0,26
1665.0,0,0,0,0,0,0,0,0,50,50,50,50,50,50,50,50,0,16,0,0,73,0,2,0,0,0,0,0,0,8
1696.0,0,0,0,0,0,0,0,0,50,50,50,50,50,50,50,50,0,0,0,0,76,0,0,0,0,8,0,0,0,3
1726.0,0,0,0,0,0,0,0,0,50,50,50,50,50,50,50,50,0,0,0,0,40,0,0,0,0,8,0,0,0,0
1755.0,0,0,0,0,0,0,0,0,50,50,50,50,50,50,50,50,0,6,0,0,55,0,1,0,0,47,0,0,0,0
1785.0,0,0,0,8,0,0,0,0,66,34,0,100,0,100,50,50,23,0,0,0,29,0,0,0,0,162,0,0,0,0
1815.0,0,0,0,8,0,0,0,0,66,34,0,100,0,100,50,50,23,0,0,0,32,0,0,0,0,162,0,0,0,0
1846.0,0,0,0,8,0,0,0,0,66,34,0,100,0,100,50,50,23,0,0,0,0,0,0,0,0,162,0,0,0,0
1876.0,0,0,0,86,0,0,0,0,100,0,0,100,0,100,50,50,0,36,0,0,0,0,0,1,0,550,0,0,0,0
1905.0,0,0,0,83,0,0,0,0,100,0,0,100,0,100,50,50,0,71,0,0,0,0,1,0,0,532,0,0,0,0
1936.0,0,0,0,83,0,0,0,0,100,0,0,100,0,100,50,50,0,71,0,0,20,0,1,0,0,532,0,0,0,0
1966.0,0,0,0,91,0,0,0,0,100,0,0,100,0,100,50,50,0,0,0,0,20,0,0,1,0,571,0,0,0,0
1996.0,0,0,0,92,0,0,0,0,100,0,0,100,0,100,50,50,0,0,0,0,20,0,0,0,0,578,0,0,0,0
2026.0,0,0,0,93,0,0,0,0,100,0,0,100,0,100,50,50,0,0,0,0,20,0,0,0,0,582,0,0,0,0
2056.0,0,0,0,95,0,0,0,0,100,0,0,100,0,100,50,50,0,18,0,0,0,0,0,0,0,592,0,0,0,0
2086.0,0,0,0,95,0,0,0,0,100,0,0,100,0,100,50,50,0,21,0,0,0,0,0,0,0,593,0,0,0,0
2115.0,0,0,0,95,0,0,0,0,100,0,0,100,0,100,50,50,0,21,0,0,41,0,0,0,0,593,0,0,0,0
2145.0,0,0,0,95,0,0,0,0,100,0,0,100,0,100,50,50,0,21,0,0,39,0,0,0,0,593,1,0,0,0
2176.0,0,0,0,73,0,0,0,0,100,0,0,100,0,100,50,50,0,0,0,0,21,0,0,0,0,483,0,0,0,0
2206.0,0,0,0,71,0,0,0,0,100,0,0,100,0,100,50,50,0,0,0,0,22,0,0,0,0,476,0,0,0,0
2236.0,0,0,0,19,0,0,0,0,100,0,0,100,0,100,50,50,0,9,0,0,22,0,0,0,0,217,0,0,0,0
2266.0,0,0,0,19,0,0,0,0,100,0,0,100,0,100,50,50,0,9,0,0,23,0,0,0,0,217,0,0,0,0
2296.0,0,0,0,19,0,0,0,0,100,0,0,100,0,100,50,50,0,9,0,0,23,0,0,0,0,217,0,0,0,0
2326.0,0,0,0,19,0,0,0,0,100,0,0,100,0,100,50,50,0,9,0,0,23,0,0,0,0,217,0,0,0,0
2356.0,0,0,0,0,0,0,0,0,50,50,50,50,50,50,50,50,25,61,0,0,39,0,0,1,0,13,0,0,0,7
2386.0,0,0,0,0,0,0,0,0,50,50,50,50,50,50,50,50,25,61,0,0,44,0,0,1,0,13,1,0,0,11
2416.0,0,0,0,0,0,0,0,0,50,50,50,50,50,50,50,50,0,5,0,0,122,0,0,0,0,6,0,0,0,23
2446.0,0,0,0,0,0,0,0,0,50,50,50,50,50,50,50,50,0,24,0,0,122,0,1,0,1,5,0,0,0,23
2475.0,0,0,0,0,0,0,0,0,50,50,50,50,50,50,50,50,0,0,0,0,132,0,0,0,0,6,0,0,0,52
2505.0,0,0,0,0,0,0,0,17,0,100,0,100,50,50,0,100,0,0,0,0,49,0,0,0,0,5,0,0,0,211
2536.0,0,0,0,0,0,0,0,48,0,100,0,100,50,50,0,100,0,8,0,0,33,0,0,0,0,4,0,0,0,366
2566.0,0,0,0,0,0,0,0,66,0,100,0,100,50,50,0,100,0,8,0,0,77,0,0,0,0,4,0,0,0,458
2596.0,0,0,0,0,0,0,0,66,0,100,0,100,50,50,0,100,0,8,0,0,77,0,0,0,0,4,0,0,0,458
2625.0,0,0,0,0,0,0,0,90,0,100,0,100,50,50,0,100,0,8,0,0,69,0,0,0,0,4,0,0,0,582
2655.0,0,0,0,0,0,0,0,100,0,100,0,100,50,50,0,100,0,0,0,0,124,0,0,1,0,3,0,0,0,656
2686.0,0,0,0,0,0,0,0,100,0,100,0,100,50,50,0,100,0,0,0,0,124,0,0,0,1,2,0,0,0,653
2716.0,0,0,0,0,0,0,0,100,0,100,0,100,50,50,0,100,0,0,0,21,103,0,0,0,1,2,0,0,0,682
2746.0,0,0,0,0,0,0,0,100,0,100,0,100,50,50,0,100,0,0,0,21,103,0,0,0,2,0,0,0,0,682
2776.0,0,0,0,0,0,0,0,100,0,100,0,100,50,50,0,100,0,0,0,76,0,0,0,0,0,0,0,0,0,663
2806.0,0,0,0,0,0,0,0,100,0,100,0,100,50,50,0,100,0,0,0,318,0,0,1,0,0,0,0,0,0,637
2836.0,0,0,0,0,0,0,0,100,0,100,0,100,50,50,0,100,0,0,0,318,0,0,0,0,0,0,0,0,0,637
2865.0,0,0,0,0,0,0,0,62,0,100,0,100,50,50,0,100,0,0,0,77,0,0,0,0,0,0,0,0,0,440
2896.0,0,0,0,0,0,0,0,45,0,100,0,100,50,50,0,100,0,0,0,111,0,0,0,0,0,0,0,0,0,353
2925.0,0,0,0,0,0,0,0,45,0,100,0,100,50,50,0,100,0,0,0,111,0,0,0,0,0,0,0,0,0,353
2956.0,0,0,0,0,0,0,0,0,50,50,50,50,50,50,50,50,0,0,0,0,64,0,0,0,0,0,0,0,0,70
2985.0,0,0,0,0,0,0,0,0,50,50,50,50,50,50,50,50,0,0,0,0,36,0,0,0,0,0,0,0,0,56
3015.0,0,0,0,0,0,0,0,0,50,50,50,50,50,50,50,50,0,0,0,18,18,0,0,0,0,0,1,0,0,21
3046.0,0,0,0,0,0,0,0,0,50,50,50,50,50,50,50,50,0,0,0,18,18,0,0,0,0,0,1,0,0,21
3076.0,0,0,0,0,0,0,0,0,50,50,50,50,50,50,50,50,0,0,0,18,18,0,1,0,0,13,1,0,0,21
3106.0,0,0,0,0,0,0,0,0,50,50,50,50,50,50,50,50,0,0,0,0,0,0,1,0,0,13,0,2,1,0
3135.0,0,0,0,0,0,0,0,0,50,50,50,50,50,50,50,50,0,8,0,0,0,0,0,0,0,96,0,0,0,0
3166.0,0,0,0,0,0,0,0,0,50,50,50,50,50,50,50,50,0,8,0,0,0,0,0,0,0,96,0,0,0,0
3196.0,0,0,0,0,0,0,0,0,50,50,50,50,50,50,50,50,0,8,0,0,0,0,0,0,0,96,0,0,0,0
3226.0,0,0,0,68,0,0,0,0,100,0,0,100,0,100,50,50,0,49,0,0,0,0,1,0,0,461,0,0,0,0
3256.0,0,0,0,73,0,0,0,0,100,0,0,100,0,100,50,50,0,49,0,0,0,0,1,0,0,486,0,0,0,0
3286.0,0,0,0,83,0,0,0,0,100,0,0,100,0,100,50,50,0,71,0,0,0,0,0,0,0,532,0,0,0,0
3316.0,0,0,0,83,0,0,0,0,100,0,0,100,0,100,50,50,0,71,0,0,0,0,0,0,0,532,0,1,0,0
3346.0,0,0,0,95,0,0,0,0,100,0,0,100,0,100,50,50,27,100,0,0,0,0,0,0,0,595,0,0,1,0
3375.0,0,0,0,97,0,0,0,0,100,0,0,100,0,100,50,50,4,27,0,0,0,0,0,0,0,604,0,0,0,0
3406.0,0,0,0,97,0,0,0,0,100,0,0,100,0,100,50,50,4,27,0,0,0,0,0,0,0,604,0,0,0,0
3436.0,0,0,0,97,0,0,0,0,100,0,0,100,0,100,50,50,4,27,0,0,0,0,0,0,0,604,0,0,0,0
3466.0,0,0,0,100,0,0,0,0,100,0,0,100,0,100,50,50,0,43,0,0,0,0,0,1,0,620,1,0,0,0
3496.0,0,0,0,95,0,0,0,0,100,0,0,100,0,100,50,50,0,51,0,0,0,0,0,0,0,592,1,0,0,0
3525.0,0,0,0,95,0,0,0,0,100,0,0,100,0,100,50,50,0,51,0,0,0,0,0,0,0,592,0,0,0,0
3556.0,0,0,0,63,0,0,0,0,100,0,0,100,0,100,50,50,7,34,0,0,0,0,1,0,2,434,0,0,0,0
3585.0,0,0,0,63,0,0,0,0,100,0,0,100,0,100,50,50,7,34,0,0,0,0,1,0,2,434,0,0,0,0
3616.0,0,0,0,63,0,0,0,0,100,0,0,100,0,100,50,50,7,34,0,0,0,0,1,0,2,434,0,1,0,0
3646.0,0,0,0,0,0,0,0,0,50,50,50,50,50,50,50,50,0,2,0,0,0,0,0,0,0,54,0,0,0,1
3675.0,0,0,0,0,0,0,0,0,50,50,50,50,50,50,50,50,0,0,0,0,0,0,2,2,0,21,0,0,0,0
3706.0,0,0,0,0,0,0,0,0,50,50,50,50,50,50,50,50,0,0,0,0,0,0,0,0,0,13,0,0,0,3
3736.0,0,0,0,0,0,0,0,0,50,50,50,50,50,50,50,50,0,0,0,0,0,0,0,0,0,9,0,0,0,3
3766.0,0,0,0,0,0,0,0,0,50,50,50,50,50,50,50,50,0,0,0,0,0,0,0,0,0,9,0,0,0,3
3796.0,0,0,0,0,0,0,0,0,50,50,50,50,50,50,50,50,0,0,0,0,0,0,0,0,0,5,0,0,0,52
3825.0,0,0,0,0,0,0,0,0,50,50,50,50,50,50,50,50,0,0,0,0,27,0,0,0,2,3,0,0,0,102
3855.0,0,0,0,0,0,0,0,1,33,67,0,100,50,50,0,100,0,0,0,57,0,0,0,0,2,3,0,0,0,130
3885.0,0,0,0,0,0,0,0,1,33,67,0,100,50,50,0,100,0,0,0,57,0,0,1,0,0,5,0,0,0,131
3916.0,0,0,0,0,0,0,0,21,0,100,0,100,50,50,0,100,0,0,0,0,117,0,1,0,0,3,0,0,0,229
3945.0,0,0,0,0,0,0,0,45,0,100,0,100,50,50,0,100,0,0,0,0,65,0,1,0,0,3,0,2,0,354
3975.0,0,0,0,0,0,0,0,64,0,100,0,100,50,50,0,100,0,0,0,0,70,0,1,0,0,3,0,0,0,450
4006.0,0,0,0,0,0,0,0,65,0,100,0,100,50,50,0,100,0,7,0,0,70,0,2,0,0,4,0,0,0,456
4036.0,0,0,0,0,0,0,0,65,0,100,0,100,50,50,0,100,0,0,0,0,70,0,0,0,0,1,0,0,0,457
4066.0,0,0,0,0,0,0,0,65,0,100,0,100,50,50,0,100,0,0,0,0,70,0,0,0,0,1,0,0,0,457
4096.0,0,0,0,0,0,0,0,79,0,100,0,100,50,50,0,100,0,0,0,48,28,0,0,0,0,1,0,0,0,524
4125.0,0,0,0,0,0,0,0,79,0,100,0,100,50,50,0,100,0,0,0,0,77,0,0,0,0,4,0,0,0,524
4156.0,0,0,0,0,0,0,0,75,0,100,0,100,50,50,0,100,0,0,0,0,173,0,0,0,0,4,0,0,0,508
4186.0,0,0,0,0,0,0,0,75,0,100,0,100,50,50,0,100,0,0,0,0,173,0,0,0,0,4,0,0,0,508
4216.0,0,0,0,0,0,0,0,75,0,100,0,100,50,50,0,100,0,0,0,0,173,0,0,0,0,4,0,0,0,508
4246.0,0,0,0,0,0,0,0,34,0,100,0,100,50,50,0,100,0,0,0,0,214,0,0,0,0,4,0,0,0,297
4275.0,0,0,0,0,0,0,0,34,0,100,0,100,50,50,0,100,0,0,0,0,214,0,0,0,0,4,0,0,0,297
4306.0,0,0,0,0,0,0,0,34,0,100,0,100,50,50,0,100,0,12,0,0,214,0,0,0,0,0,0,0,0,297
4336.0,0,0,0,0,0,0,0,34,0,100,0,100,50,50,0,100,0,12,0,0,214,0,0,0,0,0,0,0,0,297
4366.0,0,0,0,0,0,0,0,0,50,50,50,50,50,50,50,50,0,15,0,0,91,0,0,0,0,0,0,0,0,39
4396.0,0,0,0,0,0,0,0,0,50,50,50,50,50,50,50,50,0,2,0,0,59,0,0,0,0,0,0,0,0,29
4425.0,0,0,0,0,0,0,0,0,50,50,50,50,50,50,50,50,0,3,0,0,0,0,0,0,0,5,0,1,0,20
4456.0,0,0,0,0,0,0,0,0,50,50,50,50,50,50,50,50,0,3,0,0,0,0,0,0,0,5,0,1,0,20
4486.0,0,0,0,0,0,0,0,0,50,50,50,50,50,50,50,50,0,0,0,0,0,0,0,0,0,44,0,0,0,4
4515.0,0,0,0,0,0,0,0,0,50,50,50,50,50,50,50,50,0,0,0,0,0,0,1,2,0,56,0,0,0,2
4546.0,0,0,0,0,0,0,0,0,50,50,50,50,50,50,50,50,0,0,0,0,0,0,0,0,0,86,0,0,0,0
4575.0,0,0,0,12,0,0,0,0,100,0,0,100,0,100,50,50,0,32,0,0,0,0,0,0,0,182,0,0,0,0
4606.0,0,0,0,13,0,0,0,0,100,0,0,100,0,100,50,50,0,32,0,0,0,0,0,0,0,188,0,0,0,0
4636.0,0,0,0,32,0,0,0,0,100,0,0,100,0,100,50,50,0,89,0,0,0,0,0,0,0,281,0,0,0,0
4666.0,0,0,0,47,0,0,0,0,100,0,0,100,0,100,50,50,0,60,0,0,0,0,0,0,0,357,0,0,0,0
4696.0,0,0,0,69,0,0,0,0,100,0,0,100,0,100,50,50,0,37,0,0,0,0,0,0,1,463,0,0,0,0
4726.0,0,0,0,77,0,0,0,0,100,0,0,100,0,100,50,50,0,0,0,0,0,0,0,0,0,502,0,0,0,0
4756.0,0,0,0,77,0,0,0,0,100,0,0,100,0,100,50,50,0,0,0,0,0,0,0,0,0,502,0,0,0,0
4786.0,0,0,0,77,0,0,0,0,100,0,0,100,0,100,50,50,0,0,0,0,0,0,0,0,0,502,0,0,0,0
4816.0,0,0,0,88,0,0,0,0,100,0,0,100,0,100,50,50,0,46,0,0,0,0,0,0,0,557,0,0,0,0
4846.0,0,0,0,88,0,0,0,0,100,0,0,100,0,100,50,50,0,46,0,0,0,0,0,0,0,557,0,0,0,0
4876.0,0,0,0,88,0,0,0,0,100,0,0,100,0,100,50,50,0,46,0,0,0,0,0,0,0,557,0,0,0,0
4906.0,0,0,0,88,0,0,0,0,100,0,0,100,0,100,50,50,0,46,0,0,0,0,0,0,0,557,0,0,0,0
4936.0,0,0,0,88,0,0,0,0,100,0,0,100,0,100,50,50,0,46,0,0,0,0,0,0,0,557,0,0,0,0
4966.0,0,0,0,26,0,0,0,0,100,0,0,100,0,100,50,50,0,99,0,0,0,0,0,0,0,250,0,0,0,0
4996.0,0,0,0,26,0,0,0,0,100,0,0,100,0,100,50,50,0,99,0,0,0,0,0,0,0,250,0,0,0,0
5026.0,0,0,0,0,0,0,0,0,50,50,50,50,50,50,50,50,0,0,0,0,0,0,1,1,1,27,1,0,1,0
5055.0,0,0,0,0,0,0,0,0,50,50,50,50,50,50,50,50,0,0,0,0,0,0,0,0,0,17,1,0,1,0
5086.0,0,0,0,0,0,0,0,0,50,50,50,50,50,50,50,50,0,0,0,0,0,0,0,0,0,13,0,0,0,1
5116.0,0,0,0,0,0,0,0,0,50,50,50,50,50,50,50,50,0,0,0,0,0,0,0,0,0,9,0,0,0,7
5146.0,0,0,0,0,0,0,0,0,50,50,50,50,50,50,50,50,0,5,0,0,0,0,0,0,0,6,0,0,0,7
5176.0,0,0,0,0,0,0,0,0,50,50,50,50,50,50,50,50,0,0,0,0,26,0,2,0,0,1,0,0,0,39
5206.0,0,0,0,0,0,0,0,0,50,50,50,50,50,50,50,50,0,0,0,0,26,0,2,0,0,1,0,0,0,39
5236.0,0,0,0,0,0,0,0,0,50,50,50,50,50,50,50,50,0,3,0,0,26,0,0,0,0,0,0,0,0,39
5266.0,0,0,0,0,0,0,0,22,0,100,0,100,50,50,0,100,0,8,0,0,103,0,0,0,2,0,0,0,0,235
5296.0,0,0,0,0,0,0,0,37,0,100,0,100,50,50,0,100,0,0,0,0,47,0,0,0,0,1,0,0,0,312
5326.0,0,0,0,0,0,0,0,37,0,100,0,100,50,50,0,100,0,0,0,0,47,0,0,0,0,1,0,0,0,312
5356.0,0,0,0,0,0,0,0,37,0,100,0,100,50,50,0,100,0,6,0,0,47,0,0,0,0,1,0,0,0,312
5386.0,0,0,0,0,0,0,0,37,0,100,0,100,50,50,0,100,0,23,0,0,47,0,0,1,0,0,0,0,0,312
5416.0,0,0,0,0,0,0,0,100,0,100,0,100,50,50,0,100,0,0,0,0,71,0,0,0,1,0,0,0,0,687
5445.0,0,0,0,0,0,0,0,100,0,100,0,100,50,50,0,100,0,0,0,0,71,0,0,0,1,0,0,0,0,712
5476.0,0,0,0,0,0,0,0,97,0,100,0,100,50,50,0,100,0,0,0,50,58,0,0,0,1,0,0,0,0,617
5506.0,0,0,0,0,0,0,0,97,0,100,0,100,50,50,0,100,0,0,0,50,58,0,0,0,0,0,0,0,0,617
5536.0,0,0,0,0,0,0,0,79,0,100,0,100,50,50,0,100,0,0,0,0,247,0,0,0,0,0,1,0,0,528
5566.0,0,0,0,0,0,0,0,83,0,100,0,100,50,50,0,100,0,0,0,0,247,0,0,0,0,0,1,0,0,546
5596.0,0,0,0,0,0,0,0,83,0,100,0,100,50,50,0,100,0,0,0,0,247,0,1,0,0,0,1,0,0,547
5626.0,0,0,0,0,0,0,0,83,0,100,0,100,50,50,0,100,0,0,0,0,247,0,0,1,0,0,1,0,0,547
5655.0,0,0,0,0,0,0,0,0,50,50,50,50,50,50,50,50,0,0,0,2,12,0,2,0,0,0,0,0,0,92
5686.0,0,0,0,0,0,0,0,0,50,50,50,50,50,50,50,50,0,0,0,2,12,0,2,0,0,0,0,0,0,92
5716.0,0,0,0,0,0,0,0,0,50,50,50,50,50,50,50,50,0,5,0,2,12,0,0,0,0,0,0,0,0,92
5746.0,0,0,0,0,0,0,0,0,50,50,50,50,50,50,50,50,0,5,0,0,59,0,0,0,0,0,0,0,0,8
5776.0,0,0,0,0,0,0,0,0,50,50,50,50,50,50,50,50,0,5,0,0,38,0,0,0,0,0,0,0,0,5
5806.0,0,0,0,0,0,0,0,0,50,50,50,50,50,50,50,50,0,0,0,0,19,0,0,0,0,6,0,0,0,4
5836.0,0,0,0,0,0,0,0,0,50,50,50,50,50,50,50,50,0,5,0,0,0,0,0,0,0,38,0,0,0,4
5865.0,0,0,0,0,0,0,0,0,50,50,50,50,50,50,50,50,0,0,0,0,0,0,1,1,0,112,0,0,0,4
5896.0,0,0,0,0,0,0,0,0,50,50,50,50,50,50,50,50,0,0,0,0,0,0,1,1,0,112,0,0,0,4
5926.0,0,0,0,20,0,0,0,0,100,0,0,100,0,100,50,50,0,0,0,0,0,0,0,0,0,222,0,0,0,0
5956.0,0,0,0,20,0,0,0,0,100,0,0,100,0,100,50,50,0,0,0,0,0,0,0,0,0,222,0,0,0,0
5986.0,0,0,0,67,0,0,0,0,100,0,0,100,0,100,50,50,36,140,0,0,0,0,0,0,0,454,0,0,0,2
6016.0,0,0,0,74,0,0,0,0,100,0,0,100,0,100,50,50,132,97,0,0,0,0,1,0,0,491,0,0,0,0
6046.0,0,0,0,84,0,0,0,0,100,0,0,100,0,100,50,50,0,79,0,0,0,0,0,0,0,536,0,0,0,0
6076.0,0,0,0,84,0,0,0,0,100,0,0,100,0,100,50,50,0,79,0,0,0,0,0,0,0,536,0,0,0,0
6106.0,0,0,0,84,0,0,0,0,100,0,0,100,0,100,50,50,0,79,0,0,0,0,0,0,0,536,0,0,0,0
6135.0,0,0,0,90,0,0,0,0,100,0,0,100,0,100,50,50,0,0,0,0,0,0,0,2,0,567,0,0,0,0
6166.0,0,0,0,90,0,0,0,0,100,0,0,100,0,100,50,50,0,0,0,0,0,0,0,2,0,567,0,0,0,0
6196.0,0,0,0,86,0,0,0,0,100,0,0,100,0,100,50,50,18,77,0,0,0,0,1,0,0,548,0,0,0,0
6226.0,0,0,0,53,0,0,0,0,100,0,0,100,0,100,50,50,0,25,0,0,0,0,0,0,0,387,0,0,0,0
6255.0,0,0,0,20,0,0,0,0,100,0,0,100,0,100,50,50,0,125,0,0,0,0,0,0,0,224,0,0,0,0
6285.0,0,0,0,5,0,0,0,0,66,34,0,100,0,100,50,50,41,134,0,0,26,0,0,0,0,145,0,1,0,2
6316.0,0,0,0,5,0,0,0,0,66,34,0,100,0,100,50,50,41,134,0,0,0,0,0,0,0,145,0,0,0,4
6346.0,0,0,0,0,0,0,0,0,50,50,50,50,50,50,50,50,0,54,0,0,0,0,1,0,0,32,0,0,0,4
6376.0,0,0,0,0,0,0,0,0,50,50,50,50,50,50,50,50,0,23,0,0,47,0,0,0,0,18,0,0,0,4
6406.0,0,0,0,0,0,0,0,0,50,50,50,50,50,50,50,50,0,0,0,0,47,0,0,0,0,11,0,0,0,4
6435.0,0,0,0,0,0,0,0,0,50,50,50,50,50,50,50,50,0,0,0,0,64,0,0,0,0,11,0,0,0,14
6466.0,0,0,0,0,0,0,0,0,50,50,50,50,50,50,50,50,0,0,0,0,64,0,0,0,0,4,0,0,0,14
6495.0,0,0,0,0,0,0,0,0,50,50,50,50,50,50,50,50,0,0,0,0,64,0,0,0,0,3,0,0,0,14
6526.0,0,0,0,0,0,0,0,0,50,50,50,50,50,50,50,50,0,0,0,0,33,0,0,0,0,3,1,0,1,41
6555.0,0,0,0,0,0,0,0,0,50,50,50,50,50,50,50,50,0,0,0,0,0,0,0,0,0,1,0,0,0,68
6585.0,0,0,0,0,0,0,0,16,0,100,0,100,50,50,0,100,0,0,0,0,8,0,0,0,0,1,0,0,0,207
6616.0,0,0,0,0,0,0,0,36,0,100,0,100,50,50,0,100,0,0,0,0,50,0,0,0,0,0,0,0,0,308
6646.0,0,0,0,0,0,0,0,36,0,100,0,100,50,50,0,100,0,0,0,0,50,0,1,1,0,0,0,0,0,308
6676.0,0,0,0,0,0,0,0,36,0,100,0,100,50,50,0,100,0,8,0,0,50,0,0,0,0,0,0,0,0,308
6706.0,0,0,0,0,0,0,0,36,0,100,0,100,50,50,0,100,0,0,0,0,50,0,0,0,0,0,0,0,0,308
6735.0,0,0,0,0,0,0,0,83,0,100,0,100,50,50,0,100,0,0,0,84,27,0,0,0,0,1,0,0,0,546
6766.0,0,0,0,0,0,0,0,83,0,100,0,100,50,50,0,100,0,0,0,84,27,0,0,0,0,0,0,0,0,546
6796.0,0,0,0,0,0,0,0,58,0,100,0,100,50,50,0,100,0,11,0,74,33,0,0,0,0,0,0,2,0,419
6826.0,0,0,0,0,0,0,0,34,0,100,0,100,50,50,0,100,0,0,0,0,186,0,1,0,0,0,0,0,0,297
6856.0,0,0,0,0,0,0,0,34,0,100,0,100,50,50,0,100,0,34,0,0,186,0,0,0,0,4,0,0,0,297
6885.0,0,0,0,0,0,0,0,7,33,67,0,100,50,50,0,100,0,34,0,16,123,0,0,0,0,4,0,0,0,157
6916.0,0,0,0,0,0,0,0,0,50,50,50,50,50,50,50,50,0,108,0,0,108,0,1,0,1,0,0,0,0,24
6946.0,0,0,0,0,0,0,0,0,50,50,50,50,50,50,50,50,0,0,0,0,108,0,0,0,0,0,0,0,0,24
6976.0,0,0,0,0,0,0,0,0,50,50,50,50,50,50,50,50,0,0,0,0,108,0,0,0,0,0,0,0,0,24
7005.0,0,0,0,0,0,0,0,0,50,50,50,50,50,50,50,50,0,0,0,0,108,0,0,0,0,0,0,0,0,24
7035.0,0,0,0,0,0,0,0,0,50,50,50,50,50,50,50,50,0,0,0,0,3,0,0,0,0,0,0,0,0,4
7066.0,0,0,0,0,0,0,0,0,50,50,50,50,50,50,50,50,0,0,0,0,3,0,0,0,0,0,0,0,0,4
7095.0,0,0,0,0,0,0,0,0,50,50,50,50,50,50,50,50,0,0,0,0,0,0,0,0,0,0,0,0,0,1
7126.0,0,0,0,0,0,0,0,0,50,50,50,50,50,50,50,50,0,0,0,0,0,0,0,0,0,0,0,0,0,1
7156.0,0,0,0,0,0,0,0,0,50,50,50,50,50,50,50,50,0,0,0,42,0,0,0,0,0,0,0,0,0,0
7185.0,0,0,0,0,0,0,0,0,50,50,50,50,50,50,50,50,149,0,0,0,0,0,1,0,0,0,0,0,0,0
7216.0,0,0,0,0,0,0,0,0,50,50,50,50,50,50,50,50,149,0,0,0,0,0,1,0,0,0,0,0,0,0
7246.0,0,0,0,0,0,0,0,0,50,50,50,50,50,50,50,50,149,0,0,0,0,0,1,0,0,0,0,0,0,0
7276.0,0,0,0,0,0,0,0,0,50,50,50,50,50,50,50,50,0,0,0,0,0,0,0,0,0,0,0,0,0,0
7306.0,0,0,0,0,0,0,0,0,50,50,50,50,50,50,50,50,0,0,0,0,0,0,0,0,0,0,0,0,0,0
7335.0,0,0,0,0,0,0,0,0,50,50,50,50,50,50,50,50,0,0,0,0,0,0,0,0,0,0,0,0,0,0
7366.0,0,0,0,0,0,0,0,0,50,50,50,50,50,50,50,50,1,0,0,0,0,0,0,0,0,0,0,0,0,0
7396.0,0,0,0,0,0,0,0,0,50,50,50,50,50,50,50,50,1,0,0,0,0,0,0,0,0,0,0,0,0,0
7426.0,0,0,0,0,0,0,0,0,50,50,50,50,50,50,50,50,1,0,0,0,0,0,0,0,0,0,0,0,0,0
7456.0,0,0,0,0,0,0,0,0,50,50,50,50,50,50,50,50,0,0,0,0,0,0,0,0,0,0,0,0,0,0
7486.0,0,0,0,0,0,0,0,0,50,50,50,50,50,50,50,50,72,0,0,0,0,0,0,0,0,0,0,0,0,0
7516.0,0,0,0,0,0,0,0,0,50,50,50,50,50,50,50,50,0,0,0,0,0,0,0,1,0,0,0,0,0,0
7546.0,0,0,0,0,0,0,0,0,50,50,50,50,50,50,50,50,0,0,0,0,12,0,0,0,0,0,0,0,2,0
7576.0,0,0,0,0,0,0,0,0,50,50,50,50,50,50,50,50,0,0,0,0,12,0,0,0,0,0,0,0,2,0
7606.0,0,0,0,0,0,0,0,0,50,50,50,50,50,50,50,50,0,0,0,0,0,0,0,0,0,0,0,0,0,0
7636.0,0,0,0,0,0,0,0,0,50,50,50,50,50,50,50,50,0,0,0,0,0,0,0,0,0,0,0,0,0,0
7666.0,0,0,0,0,0,0,0,0,50,50,50,50,50,50,50,50,0,0,0,0,0,0,0,0,0,0,0,0,38,0
7696.0,0,0,0,0,0,0,0,0,50,50,50,50,50,50,50,50,0,0,0,0,0,0,1,0,0,0,0,0,38,0
7726.0,0,0,0,0,0,0,0,0,50,50,50,50,50,50,50,50,0,0,0,0,0,0,1,0,0,0,0,0,38,0
7756.0,0,0,0,0,3,0,41,0,0,100,100,0,50,50,100,0,0,0,0,98,204,183,0,0,0,0,174,50,419,0
7786.0,0,0,0,0,17,0,48,0,0,100,100,0,50,50,100,0,0,0,0,0,130,0,0,0,0,0,260,61,460,0
7816.0,0,0,0,0,17,0,48,0,0,100,100,0,50,50,100,0,0,0,0,0,130,0,0,0,0,0,260,61,460,0
7846.0,0,0,0,0,17,0,48,0,0,100,100,0,50,50,100,0,0,0,0,0,130,0,1,0,0,0,260,61,460,0
7876.0,0,0,0,0,33,0,55,0,0,100,100,0,50,50,100,0,0,0,0,0,212,0,0,0,0,0,362,63,505,0
7906.0,0,0,0,0,28,0,52,0,0,100,100,0,50,50,100,0,0,0,0,34,199,0,0,0,0,0,336,63,489,0
7936.0,0,0,0,0,28,0,52,0,0,100,100,0,50,50,100,0,0,0,0,34,199,0,0,0,0,0,336,63,489,0
7966.0,0,0,0,0,28,0,52,0,0,100,100,0,50,50,100,0,0,0,0,34,199,0,0,0,0,0,336,63,489,0
7996.0,0,0,0,0,28,0,52,0,0,100,100,0,50,50,100,0,0,0,0,34,199,0,0,0,0,0,336,63,489,0
8026.0,0,0,0,0,0,0,0,0,50,50,50,50,50,50,50,50,17,0,0,0,78,0,0,0,0,0,45,0,127,0
8056.0,0,0,0,0,0,0,0,0,50,50,50,50,50,50,50,50,17,0,0,0,63,0,0,0,0,0,19,0,62,0
8086.0,0,0,0,0,0,0,0,0,50,50,50,50,50,50,50,50,60,0,0,0,92,0,0,0,0,0,21,0,45,0
8116.0,0,0,0,0,0,0,0,0,50,50,50,50,50,50,50,50,60,0,0,0,117,0,0,0,0,0,18,0,23,0
8146.0,0,0,0,0,0,0,0,0,50,50,50,50,50,50,50,50,60,0,0,0,117,0,0,0,0,0,18,0,23,0
8176.0,0,0,0,0,0,0,0,0,50,50,50,50,50,50,50,50,146,0,0,0,117,0,0,0,0,0,18,0,23,0
8206.0,0,0,0,0,0,0,0,0,50,50,50,50,50,50,50,50,102,0,0,0,77,0,4,0,0,0,8,0,5,0
8236.0,0,0,0,0,0,0,0,0,50,50,50,50,50,50,50,50,88,0,0,0,96,0,0,0,0,0,6,0,0,0
8266.0,0,0,0,0,0,0,0,0,50,50,50,50,50,50,50,50,88,0,0,0,96,0,0,0,0,0,6,0,0,0
8296.0,0,0,0,0,0,0,0,0,50,50,50,50,50,50,50,50,88,0,0,0,36,0,0,0,0,0,3,0,1,0
8326.0,0,0,0,0,0,0,0,0,50,50,50,50,50,50,50,50,0,0,0,0,39,0,1,0,0,0,2,0,1,0
8356.0,0,0,0,0,0,0,0,0,50,50,50,50,50,50,50,50,0,0,0,0,39,0,1,0,0,0,2,0,1,0
8385.0,0,0,0,0,0,0,0,0,50,50,50,50,50,50,50,50,0,0,0,0,24,0,0,0,2,0,2,0,0,1
8416.0,0,0,0,0,0,0,0,0,50,50,50,50,50,50,50,50,0,0,0,0,33,0,10,0,63,0,0,0,1,0
8446.0,0,0,0,0,0,0,0,0,50,50,50,50,50,50,50,50,0,0,0,0,16,0,18,0,97,0,0,0,0,0
8476.0,0,0,0,0,0,0,0,0,50,50,50,50,50,50,50,50,0,0,0,0,16,0,18,0,97,0,0,0,0,0
8506.0,7,0,58,0,0,0,0,0,100,0,100,0,100,0,50,50,0,0,0,0,53,0,197,0,507,0,0,0,0,0
8536.0,12,0,51,0,0,0,0,0,100,0,100,0,100,0,50,50,0,0,0,0,53,0,228,0,464,0,0,0,0,0
8566.0,12,0,51,0,0,0,0,0,100,0,100,0,100,0,50,50,0,0,0,0,30,0,228,0,464,0,0,0,0,0
8596.0,12,0,51,0,0,0,0,0,100,0,100,0,100,0,50,50,0,0,0,0,30,0,228,0,464,0,0,0,0,0
8625.0,27,0,47,0,0,0,0,0,100,0,100,0,100,0,50,50,0,0,0,0,28,0,319,0,438,0,0,0,0,0
8656.0,27,0,48,0,0,0,0,0,100,0,100,0,100,0,50,50,0,0,0,0,28,0,322,0,443,0,0,0,0,0
8686.0,24,0,44,0,0,0,0,0,100,0,100,0,100,0,50,50,0,0,0,0,28,0,304,0,422,0,0,0,0,0
8716.0,24,0,44,0,0,0,0,0,100,0,100,0,100,0,50,50,0,0,0,0,35,0,304,0,422,0,0,0,0,0
8746.0,0,0,0,0,0,0,0,0,50,50,50,50,50,50,50,50,0,0,0,0,9,0,35,0,56,0,0,0,0,0
8776.0,0,0,0,0,0,0,0,0,50,50,50,50,50,50,50,50,0,0,0,0,0,0,12,0,32,0,0,2,1,0
8806.0,0,0,0,0,0,0,0,0,50,50,50,50,50,50,50,50,0,0,0,0,0,0,2,0,23,0,0,0,0,0
8835.0,0,0,0,0,0,0,0,0,50,50,50,50,50,50,50,50,0,0,0,0,0,0,2,0,23,0,0,0,0,0
8866.0,0,0,0,0,0,0,0,0,50,50,50,50,50,50,50,50,0,0,0,0,0,0,1,0,0,0,1,0,3,0
8896.0,0,0,0,0,0,0,0,0,50,50,50,50,50,50,50,50,0,0,0,0,0,0,1,0,0,0,1,0,3,0
8926.0,0,0,0,0,0,0,0,0,50,50,50,50,50,50,50,50,121,0,0,0,0,0,1,0,0,0,1,0,3,0
8955.0,0,0,0,0,0,0,0,0,50,50,50,50,50,50,50,50,134,0,2,0,0,0,0,1,0,0,0,0,0,0
8985.0,0,0,0,0,0,0,0,0,50,50,50,50,50,50,50,50,27,0,0,0,0,0,1,0,0,0,0,0,0,1
9015.0,0,0,0,0,0,0,0,0,50,50,50,50,50,50,50,50,0,0,0,0,0,0,1,0,0,0,0,0,0,1
9046.0,0,0,0,0,0,0,0,0,50,50,50,50,50,50,50,50,0,0,0,0,8,0,0,0,0,0,0,0,0,0
9076.0,0,0,0,0,0,0,0,0,50,50,50,50,50,50,50,50,80,0,0,0,8,0,0,0,0,0,0,0,0,0
9106.0,0,0,0,0,0,0,0,0,50,50,50,50,50,50,50,50,80,0,0,0,8,0,0,0,0,0,0,0,0,0
9136.0,0,0,0,0,0,0,0,0,50,50,50,50,50,50,50,50,0,0,0,0,8,0,0,1,0,0,0,0,0,0
9166.0,0,0,0,0,0,0,0,0,50,50,50,50,50,50,50,50,0,0,0,0,8,0,0,1,0,0,0,0,0,0
9195.0,0,0,0,0,0,0,0,0,50,50,50,50,50,50,50,50,132,0,0,0,0,0,0,0,0,0,0,0,0,0
9226.0,0,0,0,0,0,0,0,0,50,50,50,50,50,50,50,50,75,0,0,26,119,0,0,0,0,0,0,0,0,0
9256.0,0,0,0,0,0,0,0,0,50,50,50,50,50,50,50,50,0,0,0,26,119,0,0,0,1,0,0,0,0,0
9286.0,0,0,0,0,0,0,0,0,50,50,50,50,50,50,50,50,0,0,0,26,119,0,0,0,1,0,0,0,0,0
9316.0,0,0,0,0,0,0,0,0,50,50,50,50,50,50,50,50,0,0,0,26,119,0,0,0,1,0,0,0,0,0
9345.0,0,0,0,0,0,0,0,0,50,50,50,50,50,50,50,50,0,0,0,95,0,0,0,0,1,0,0,0,0,1
9376.0,0,0,0,0,0,0,0,0,50,50,50,50,50,50,50,50,0,0,0,95,0,0,0,0,1,0,0,0,0,1
9406.0,0,0,0,0,0,0,0,0,50,50,50,50,50,50,50,50,0,0,0,95,0,0,0,0,2,0,0,0,0,1
9435.0,0,0,0,0,0,0,0,0,50,50,50,50,50,50,50,50,0,0,0,24,0,0,0,0,2,0,0,0,0,0
9466.0,0,0,0,0,0,0,0,0,50,50,50,50,50,50,50,50,0,0,0,24,0,0,0,0,2,0,0,0,0,0
9495.0,0,0,0,0,0,0,0,0,50,50,50,50,50,50,50,50,0,0,0,24,0,0,0,0,2,0,0,0,0,0
9526.0,0,0,0,0,0,0,0,0,50,50,50,50,50,50,50,50,0,0,0,24,0,0,0,0,0,0,0,0,0,0
9556.0,0,0,0,0,0,0,0,0,50,50,50,50,50,50,50,50,0,0,0,24,0,0,0,0,0,0,0,0,0,0
9586.0,0,0,0,0,0,0,0,0,50,50,50,50,50,50,50,50,0,0,0,114,0,0,0,0,0,0,0,0,0,0
9616.0,0,0,0,0,0,0,0,0,50,50,50,50,50,50,50,50,0,0,0,232,0,0,0,0,0,0,0,0,0,0
9645.0,0,0,0,0,0,0,0,0,50,50,50,50,50,50,50,50,0,0,0,216,0,0,0,0,0,0,0,0,0,0
9676.0,0,0,0,0,0,0,0,0,50,50,50,50,50,50,50,50,0,0,0,127,0,0,0,0,0,0,0,0,0,0
9706.0,0,0,0,0,0,0,0,0,50,50,50,50,50,50,50,50,0,0,0,165,0,0,0,0,0,0,0,0,0,0
9736.0,0,0,0,0,0,0,0,0,50,50,50,50,50,50,50,50,0,0,0,165,0,0,1,0,0,0,0,0,0,0
9766.0,0,0,0,0,0,0,0,0,50,50,50,50,50,50,50,50,0,0,0,224,0,0,1,0,0,0,0,0,1,0
9795.0,0,0,0,0,0,0,0,0,50,50,50,50,50,50,50,50,0,0,0,224,0,0,0,0,0,0,0,0,1,0
9826.0,0,0,0,0,0,0,0,0,50,50,50,50,50,50,50,50,0,0,0,224,0,0,0,0,0,0,0,0,1,0
9856.0,0,0,0,0,0,0,0,0,50,50,50,50,50,50,50,50,0,0,0,260,0,0,0,0,0,0,0,0,0,0
9886.0,0,0,0,0,0,0,0,0,50,50,50,50,50,50,50,50,0,0,0,260,0,0,0,0,0,0,0,0,0,0
9916.0,0,0,0,0,0,0,0,0,50,50,50,50,50,50,50,50,0,0,0,304,0,0,1,0,0,0,0,2,32,0
9945.0,0,0,0,0,0,0,0,0,50,50,50,50,50,50,50,50,0,0,0,304,0,0,0,0,0,0,0,2,32,0
9976.0,0,0,0,0,0,0,0,0,50,50,50,50,50,50,50,50,0,0,0,304,0,0,0,0,0,0,0,2,32,0
10006.0,0,0,0,0,0,0,0,0,50,50,50,50,50,50,50,50,0,0,0,304,0,0,0,0,0,0,0,2,32,0
10036.0,0,0,0,0,0,0,0,0,50,50,50,50,50,50,50,50,0,0,0,304,0,0,0,0,0,0,0,2,32,0
10066.0,0,0,0,0,0,0,0,0,50,50,50,50,50,50,50,50,0,0,0,304,0,0,0,0,0,0,0,2,32,0
10095.0,0,0,0,0,0,0,74,0,0,100,100,0,50,50,100,0,0,0,0,306,0,0,0,0,0,0,0,0,628,0
10126.0,0,0,0,0,0,0,74,0,0,100,100,0,50,50,100,0,0,0,0,306,0,0,0,0,0,0,0,0,628,0
10156.0,0,0,0,0,0,0,76,0,0,100,100,0,50,50,100,0,0,0,0,290,0,0,0,0,0,0,0,0,640,1
10186.0,0,0,0,0,0,0,76,0,0,100,100,0,50,50,100,0,0,0,0,290,0,0,0,0,0,0,0,0,640,1
10216.0,0,0,0,0,0,0,76,0,0,100,100,0,50,50,100,0,0,0,0,290,0,0,0,0,0,0,0,0,640,1
10246.0,0,0,0,0,0,0,77,0,0,100,100,0,50,50,100,0,0,0,0,282,0,0,0,0,0,0,0,0,647,0
10276.0,0,0,0,0,0,0,77,0,0,100,100,0,50,50,100,0,0,0,0,282,0,0,1,0,0,0,0,0,647,0
10306.0,0,0,0,0,0,0,77,0,0,100,100,0,50,50,100,0,0,0,0,197,0,0,1,0,0,0,0,0,646,0
10336.0,0,0,0,0,0,0,64,0,0,100,100,0,50,50,100,0,0,0,0,71,0,0,1,0,0,0,0,0,561,0
10366.0,0,0,0,0,0,0,33,0,0,100,100,0,50,50,100,0,0,0,0,216,40,0,1,0,0,0,0,0,364,0
10396.0,0,0,0,0,0,0,33,0,0,100,100,0,50,50,100,0,0,0,0,216,40,0,1,0,0,0,0,0,364,0
10426.0,0,0,0,0,0,0,33,0,0,100,100,0,50,50,100,0,0,0,0,216,40,0,0,0,0,0,0,0,364,0
10456.0,0,0,0,0,0,0,33,0,0,100,100,0,50,50,100,0,0,0,0,216,40,0,0,0,0,0,0,0,364,0
10486.0,0,0,0,0,0,0,33,0,0,100,100,0,50,50,100,0,0,0,0,216,40,0,5,0,1,0,0,0,364,0
10516.0,0,0,0,0,0,0,33,0,0,100,100,0,50,50,100,0,0,0,0,216,40,0,0,0,0,0,0,0,364,0
10546.0,0,0,0,0,0,0,0,0,50,50,50,50,50,50,50,50,0,0,0,6,0,0,0,0,1,0,0,0,47,0
10576.0,0,0,0,0,0,0,0,0,50,50,50,50,50,50,50,50,0,0,0,6,0,0,0,0,1,0,0,0,47,0
10606.0,0,0,0,0,0,0,0,0,50,50,50,50,50,50,50,50,0,0,0,0,0,0,0,0,1,0,0,0,26,0
10636.0,0,0,0,0,0,0,0,0,50,50,50,50,50,50,50,50,0,0,0,0,0,0,0,0,1,0,0,0,20,0
10666.0,0,0,0,0,0,0,0,0,50,50,50,50,50,50,50,50,0,0,0,0,0,0,0,0,1,0,0,0,13,0
10696.0,0,0,0,0,0,0,0,0,50,50,50,50,50,50,50,50,0,0,0,0,0,0,0,0,1,0,0,0,13,0
10726.0,0,0,0,0,0,0,0,0,50,50,50,50,50,50,50,50,0,0,0,0,0,0,0,0,1,0,0,0,8,0
10756.0,0,0,0,0,0,0,0,0,50,50,50,50,50,50,50,50,0,0,0,0,0,0,0,0,53,0,0,0,8,0
10785.0,0,0,0,0,0,0,0,0,50,50,50,50,50,50,50,50,0,0,0,0,0,0,0,0,53,0,0,0,5,0
10816.0,0,0,0,0,0,0,0,0,50,50,50,50,50,50,50,50,0,0,0,0,0,0,0,0,53,0,0,0,5,0
10846.0,0,0,0,0,0,0,0,0,50,50,50,50,50,50,50,50,0,25,0,0,0,0,0,1,20,0,0,0,5,0
10875.0,0,0,0,0,0,0,0,0,50,50,50,50,50,50,50,50,0,25,0,0,0,0,0,1,18,0,0,0,5,0
10906.0,0,0,0,0,0,0,0,0,50,50,50,50,50,50,50,50,0,0,0,0,0,0,2,0,0,0,0,0,10,0
10936.0,0,0,0,0,0,0,0,0,50,50,50,50,50,50,50,50,0,0,0,0,0,0,2,0,0,0,0,0,11,0
10966.0,0,0,0,0,0,0,0,0,50,50,50,50,50,50,50,50,143,0,0,0,0,0,0,0,1,0,0,0,11,0
10996.0,0,0,0,0,0,0,0,0,50,50,50,50,50,50,50,50,0,189,0,69,0,0,2,0,2,0,0,0,17,0
11026.0,0,0,0,0,0,0,0,0,50,50,50,50,50,50,50,50,0,217,0,69,0,0,0,0,0,0,0,0,17,0
11056.0,0,0,0,0,0,0,0,0,50,50,50,50,50,50,50,50,0,217,0,183,0,0,0,0,0,0,0,0,11,0
11086.0,0,0,0,0,0,0,0,0,50,50,50,50,50,50,50,50,0,217,0,80,0,0,0,0,0,0,0,0,14,0
11115.0,0,0,0,0,0,0,0,0,50,50,50,50,50,50,50,50,0,250,0,80,0,0,0,0,0,0,0,0,14,0
11146.0,0,0,0,0,0,0,0,0,50,50,50,50,50,50,50,50,0,250,0,0,0,0,0,0,0,0,1,0,5,0
11176.0,0,0,0,0,0,0,0,0,50,50,50,50,50,50,50,50,150,306,0,25,0,0,0,0,0,0,0,0,2,0
11206.0,0,0,0,0,0,0,0,0,50,50,50,50,50,50,50,50,150,306,0,39,0,0,0,0,0,0,0,0,1,0
11236.0,0,0,0,0,0,0,0,0,50,50,50,50,50,50,50,50,150,306,0,39,0,0,0,0,0,0,0,0,1,0
11266.0,0,0,0,0,0,0,0,0,50,50,50,50,50,50,50,50,0,0,0,114,0,0,0,0,0,0,1,0,3,0
11296.0,0,0,0,0,0,0,0,0,50,50,50,50,50,50,50,50,0,0,0,128,0,0,0,0,0,0,0,0,0,0
11326.0,0,0,0,0,0,0,0,0,50,50,50,50,50,50,50,50,167,19,0,128,0,0,1,0,0,0,0,0,0,0
11356.0,0,0,0,0,0,0,0,0,50,50,50,50,50,50,50,50,194,0,0,128,0,0,1,0,0,0,0,0,0,0
11386.0,0,0,0,0,0,0,0,0,50,50,50,50,50,50,50,50,188,11,0,101,0,0,0,0,0,0,1,1,0,0
11416.0,0,0,0,0,0,0,0,0,50,50,50,50,50,50,50,50,188,11,0,60,0,0,0,0,0,0,1,0,0,0
11446.0,0,0,0,0,0,0,0,0,50,50,50,50,50,50,50,50,133,48,0,60,0,0,0,0,0,0,1,0,0,0
11476.0,0,0,0,0,0,0,0,0,50,50,50,50,50,50,50,50,105,5,0,36,0,0,1,0,0,0,0,0,0,0
11506.0,0,0,0,0,0,0,0,0,50,50,50,50,50,50,50,50,105,5,0,36,0,0,1,0,0,0,0,0,0,0
11536.0,0,0,0,0,0,0,0,0,50,50,50,50,50,50,50,50,56,0,0,83,0,0,0,0,0,0,0,0,0,0
11566.0,0,0,0,0,0,0,0,0,50,50,50,50,50,50,50,50,56,0,0,97,0,0,0,0,0,0,0,0,0,0
11596.0,0,0,0,0,0,0,0,0,50,50,50,50,50,50,50,50,0,0,0,97,0,0,0,0,0,0,0,0,0,0
11626.0,0,0,0,0,0,0,0,0,50,50,50,50,50,50,50,50,0,0,0,7,0,0,0,0,0,0,0,0,0,0
11656.0,0,0,0,0,0,0,0,0,50,50,50,50,50,50,50,50,98,0,0,0,16,0,0,0,0,0,0,0,0,0
11686.0,0,0,0,0,0,0,0,0,50,50,50,50,50,50,50,50,98,0,0,0,44,0,0,0,0,0,0,1,0,0
11716.0,0,0,0,0,0,0,0,0,50,50,50,50,50,50,50,50,98,0,0,0,35,0,0,0,0,0,0,0,0,0
11746.0,0,0,0,0,0,0,0,0,50,50,50,50,50,50,50,50,98,0,0,0,20,0,0,0,0,0,0,2,0,0
11776.0,0,0,0,0,0,0,0,0,50,50,50,50,50,50,50,50,0,0,0,0,20,0,0,1,44,0,0,2,0,0
11806.0,0,0,4,0,0,0,0,0,66,34,100,0,100,0,50,50,40,0,0,0,20,0,2,0,173,0,0,0,5,0
11836.0,0,0,14,0,0,0,0,0,100,0,100,0,100,0,50,50,88,0,0,0,0,0,2,0,237,0,0,0,10,0
11866.0,0,0,14,0,0,0,0,0,100,0,100,0,100,0,50,50,88,0,0,0,0,0,2,0,237,0,0,0,10,0
11896.0,0,0,35,0,0,0,0,0,100,0,100,0,100,0,50,50,16,0,0,0,9,0,0,0,363,0,0,0,34,0
11926.0,0,0,32,0,0,0,0,0,100,0,100,0,100,0,50,50,0,0,0,0,9,0,0,0,347,0,0,0,34,0
11956.0,0,0,32,0,0,0,0,0,100,0,100,0,100,0,50,50,0,0,0,0,0,0,0,0,347,0,0,0,38,1
11986.0,0,0,38,0,0,0,0,0,100,0,100,0,100,0,50,50,0,128,0,0,0,0,0,0,384,0,0,0,38,1
12016.0,0,0,36,0,0,0,0,0,100,0,100,0,100,0,50,50,0,0,0,0,0,0,0,0,372,0,0,0,37,0
12046.0,0,0,36,0,0,0,0,0,100,0,100,0,100,0,50,50,0,0,0,0,0,0,0,0,372,0,0,0,40,0
12076.0,0,0,36,0,0,0,0,0,100,0,100,0,100,0,50,50,0,0,0,0,0,0,0,0,372,0,0,0,40,0
12105.0,0,0,31,0,0,0,0,0,100,0,100,0,100,0,50,50,0,0,0,0,0,0,2,1,341,0,0,0,47,1
12136.0,0,0,5,0,0,0,0,0,66,34,100,0,100,0,50,50,0,0,0,0,0,0,0,0,183,0,0,0,49,0
12166.0,0,0,5,0,0,0,0,0,66,34,100,0,100,0,50,50,0,0,0,0,0,0,0,0,183,0,0,0,49,0
12196.0,0,0,0,0,0,0,0,0,50,50,50,50,50,50,50,50,33,0,0,0,0,0,0,0,23,0,0,0,49,0
12226.0,0,0,0,0,0,0,0,0,50,50,50,50,50,50,50,50,33,0,0,0,0,0,1,1,11,0,0,0,102,0
12255.0,0,0,0,0,0,0,0,0,50,50,50,50,50,50,50,50,0,0,0,0,0,0,3,0,0,0,1,0,125,0
12286.0,0,0,0,0,0,0,2,0,33,67,100,0,50,50,100,0,0,0,0,0,11,0,0,0,0,0,0,0,167,1
12316.0,0,0,0,0,0,0,2,0,33,67,100,0,50,50,100,0,0,0,0,0,11,0,0,0,0,0,0,0,167,1
12346.0,0,0,0,0,0,0,20,0,0,100,100,0,50,50,100,0,0,0,0,11,36,0,0,0,0,0,0,0,279,0
12376.0,0,0,0,0,0,0,42,0,0,100,100,0,50,50,100,0,0,0,0,0,0,0,1,0,0,0,0,0,422,0
12405.0,0,0,0,0,0,0,55,0,0,100,100,0,50,50,100,0,14,0,0,15,0,0,0,0,0,0,0,0,503,0
12436.0,0,0,0,0,0,0,65,0,0,100,100,0,50,50,100,0,0,0,0,74,84,0,0,0,0,0,0,0,569,0
12466.0,0,0,0,0,0,0,76,0,0,100,100,0,50,50,100,0,30,0,0,129,0,0,0,0,2,0,0,0,640,0
12496.0,0,0,0,0,0,0,77,0,0,100,100,0,50,50,100,0,30,0,0,129,0,0,0,0,2,0,0,0,644,0
12526.0,0,0,0,0,0,0,77,0,0,100,100,0,50,50,100,0,30,0,0,129,0,0,0,0,2,0,0,0,645,0
12555.0,0,0,0,0,0,0,88,0,0,100,100,0,50,50,100,0,30,0,0,42,49,0,0,0,2,0,0,0,718,0
12586.0,0,0,0,0,0,0,89,0,0,100,100,0,50,50,100,0,30,0,0,0,11,0,0,0,2,0,0,0,725,0
12616.0,0,0,0,0,0,0,89,0,0,100,100,0,50,50,100,0,0,0,0,22,44,0,0,0,0,0,0,0,731,0
12646.0,0,0,0,0,0,0,88,0,0,100,100,0,50,50,100,0,0,0,0,0,0,0,0,0,0,0,0,0,715,0
12676.0,0,0,0,0,0,0,72,0,0,100,100,0,50,50,100,0,0,0,0,0,0,0,0,0,0,0,0,0,612,0
12705.0,0,0,0,0,0,0,54,0,0,100,100,0,50,50,100,0,0,0,0,0,7,0,0,0,0,0,0,0,499,0
12736.0,0,0,0,0,0,0,43,0,0,100,100,0,50,50,100,0,0,0,0,49,89,0,0,0,0,1,0,0,426,0
12766.0,0,0,0,0,0,0,28,0,0,100,100,0,50,50,100,0,0,0,0,88,27,0,0,0,0,0,0,0,334,0
12796.0,0,0,0,0,0,0,7,0,33,67,100,0,50,50,100,0,0,0,0,0,14,0,0,0,1,0,0,0,199,0
12826.0,0,0,0,0,0,0,7,0,33,67,100,0,50,50,100,0,0,0,0,0,14,0,0,0,1,0,0,0,199,0
12855.0,0,0,0,0,0,0,0,0,50,50,50,50,50,50,50,50,0,0,0,0,66,0,0,0,1,1,0,0,95,0
12886.0,0,0,0,0,0,0,0,0,50,50,50,50,50,50,50,50,20,0,0,0,31,0,1,0,2,0,1,1,82,0
12916.0,0,0,0,0,0,0,0,0,50,50,50,50,50,50,50,50,20,0,0,0,31,0,1,0,2,0,1,1,81,0
12946.0,0,0,0,0,0,0,0,0,50,50,50,50,50,50,50,50,13,0,0,0,31,0,0,2,13,0,1,1,81,0
12976.0,0,0,0,0,0,0,0,0,50,50,50,50,50,50,50,50,13,0,0,0,26,0,0,2,13,0,0,0,52,0
13006.0,0,0,4,0,0,0,0,0,66,34,100,0,100,0,50,50,0,0,0,0,18,0,0,0,171,0,0,0,42,0
13035.0,0,0,11,0,0,0,0,0,100,0,100,0,100,0,50,50,10,0,0,0,18,0,0,0,215,0,0,0,42,0
13066.0,0,0,11,0,0,0,0,0,100,0,100,0,100,0,50,50,10,0,0,0,18,0,0,0,215,0,0,0,42,0
13096.0,0,0,26,0,0,0,0,0,100,0,100,0,100,0,50,50,121,0,0,0,18,0,1,1,313,0,0,0,42,0
13126.0,0,0,26,0,0,0,0,0,100,0,100,0,100,0,50,50,121,0,0,0,7,0,1,1,313,0,0,0,17,0
13156.0,0,0,26,0,0,0,0,0,100,0,100,0,100,0,50,50,121,0,0,0,7,0,1,1,313,0,0,0,17,0
13186.0,0,0,31,0,0,0,0,0,100,0,100,0,100,0,50,50,0,78,0,0,0,0,0,0,343,0,0,0,14,0
13216.0,0,0,31,0,0,0,0,0,100,0,100,0,100,0,50,50,0,3,0,0,0,0,0,0,343,0,0,0,14,0
13246.0,0,0,31,0,0,0,0,0,100,0,100,0,100,0,50,50,0,3,0,0,0,0,0,0,343,0,0,0,11,0
13276.0,0,0,32,0,0,0,0,0,100,0,100,0,100,0,50,50,0,43,0,0,0,0,0,0,347,0,0,0,11,0
13306.0,0,0,28,0,0,0,0,0,100,0,100,0,100,0,50,50,0,0,0,0,0,0,1,0,320,0,0,0,11,0
13336.0,0,0,28,0,0,0,0,0,100,0,100,0,100,0,50,50,0,0,0,0,0,0,1,0,320,0,0,0,11,0
13366.0,0,0,9,0,0,0,0,0,66,34,100,0,100,0,50,50,0,0,0,0,0,0,0,0,203,0,0,0,11,0
13396.0,0,0,0,0,0,0,0,0,50,50,50,50,50,50,50,50,0,12,0,19,33,0,0,0,37,0,0,0,8,0
13426.0,0,0,0,0,0,0,0,0,50,50,50,50,50,50,50,50,0,12,0,19,33,0,0,0,26,0,0,0,8,0
13456.0,0,0,0,0,0,0,0,0,50,50,50,50,50,50,50,50,3,0,0,42,62,0,1,0,5,0,0,0,7,0
13486.0,0,0,0,0,0,0,0,0,50,50,50,50,50,50,50,50,2,2,0,42,62,0,0,0,0,0,0,0,7,0
13515.0,0,0,0,0,0,0,0,0,50,50,50,50,50,50,50,50,0,0,0,0,67,0,2,1,0,0,0,0,13,0
13546.0,0,0,0,0,0,0,0,0,50,50,50,50,50,50,50,50,0,0,0,0,52,0,0,0,0,1,0,0,17,0
13576.0,0,0,0,0,0,0,0,0,50,50,50,50,50,50,50,50,0,0,0,0,0,0,0,0,0,0,1,0,15,0
13606.0,0,0,0,0,0,0,0,0,50,50,50,50,50,50,50,50,0,0,0,18,60,0,0,0,0,0,0,1,14,0
13636.0,0,0,0,0,0,0,0,0,50,50,50,50,50,50,50,50,0,0,0,131,28,0,0,0,0,0,0,0,15,0
13666.0,0,0,0,0,0,0,0,0,50,50,50,50,50,50,50,50,0,0,0,131,28,0,0,0,0,0,0,0,15,0
13696.0,0,0,0,0,0,0,0,0,50,50,50,50,50,50,50,50,0,0,0,142,27,0,1,0,0,0,0,0,12,0
13726.0,0,0,0,0,0,0,0,0,50,50,50,50,50,50,50,50,0,0,0,108,0,0,1,0,0,0,0,0,16,1
13756.0,0,0,0,0,0,0,0,0,50,50,50,50,50,50,50,50,0,0,0,108,0,0,1,0,0,0,0,0,16,1
13786.0,0,0,0,0,0,0,0,0,50,50,50,50,50,50,50,50,0,0,0,108,0,0,0,0,0,0,0,0,16,1
13815.0,0,0,0,0,0,0,28,0,0,100,100,0,50,50,100,0,0,0,0,0,0,0,0,0,2,1,0,1,335,0
13846.0,0,0,0,0,0,0,28,0,0,100,100,0,50,50,100,0,0,0,0,0,0,0,0,0,2,1,0,1,335,0
13876.0,0,0,0,0,0,0,64,0,0,100,100,0,50,50,100,0,0,0,0,0,65,0,0,0,1,0,0,0,563,0
13906.0,0,0,0,0,0,0,64,0,0,100,100,0,50,50,100,0,0,0,0,0,65,0,0,0,1,0,0,0,563,0
13936.0,0,0,0,0,0,0,64,0,0,100,100,0,50,50,100,0,0,0,0,0,65,0,0,0,0,0,0,0,563,0
13966.0,0,0,0,0,0,0,78,0,0,100,100,0,50,50,100,0,0,0,0,135,90,0,0,0,1,0,0,0,650,0
13996.0,0,0,0,0,0,0,78,0,0,100,100,0,50,50,100,0,0,0,0,135,90,0,0,0,0,0,0,0,650,0
14025.0,0,0,0,0,0,0,78,0,0,100,100,0,50,50,100,0,0,0,0,135,90,0,1,0,2,0,0,0,650,0
14056.0,0,0,0,0,0,0,82,0,0,100,100,0,50,50,100,0,0,0,0,184,191,0,0,0,1,0,0,0,677,0
14086.0,0,0,0,0,0,0,82,0,0,100,100,0,50,50,100,0,0,0,0,184,191,0,0,0,1,0,0,0,677,0
14116.0,0,0,0,0,0,0,48,0,0,100,100,0,50,50,100,0,0,0,0,157,93,0,2,0,1,0,0,0,463,0
14146.0,0,0,0,0,0,0,48,0,0,100,100,0,50,50,100,0,0,0,0,157,93,0,0,0,0,0,0,0,463,0
14176.0,0,0,0,0,0,0,0,0,50,50,50,50,50,50,50,50,0,0,0,58,1,0,0,0,3,0,0,0,144,0
14206.0,0,0,0,0,0,0,0,0,50,50,50,50,50,50,50,50,0,0,0,17,17,0,0,0,3,0,0,0,136,0
14236.0,0,0,0,0,0,0,0,0,50,50,50,50,50,50,50,50,0,0,0,37,118,0,0,0,6,0,0,0,72,0
14266.0,0,0,0,0,0,0,0,0,50,50,50,50,50,50,50,50,0,0,0,58,109,0,0,0,6,0,0,0,56,0
14296.0,0,0,0,0,0,0,0,0,50,50,50,50,50,50,50,50,0,0,0,35,81,0,0,0,21,0,0,0,48,0
14326.0,0,0,0,0,0,0,0,0,50,50,50,50,50,50,50,50,0,0,0,83,79,0,0,0,50,0,0,0,29,0
14356.0,0,0,0,0,0,0,0,0,50,50,50,50,50,50,50,50,0,0,0,83,79,0,0,0,50,0,0,0,29,0
14386.0,0,0,0,0,0,0,0,0,66,34,100,0,100,0,50,50,0,0,0,83,79,0,0,0,150,0,0,0,29,0
14416.0,0,0,15,0,0,0,0,0,100,0,100,0,100,0,50,50,0,46,0,30,16,0,0,0,244,0,0,0,10,1
14446.0,0,0,16,0,0,0,0,0,100,0,100,0,100,0,50,50,0,46,0,30,16,0,0,0,250,0,0,0,9,1
14475.0,0,0,16,0,0,0,0,0,100,0,100,0,100,0,50,50,0,46,0,42,29,0,0,0,251,0,0,0,9,0
14506.0,0,0,26,0,0,0,0,0,100,0,100,0,100,0,50,50,0,0,0,42,29,0,0,0,311,0,0,0,9,0
14536.0,0,0,27,0,0,0,0,0,100,0,100,0,100,0,50,50,0,0,0,42,29,0,0,0,318,0,0,0,9,0
14566.0,0,0,27,0,0,0,0,0,100,0,100,0,100,0,50,50,0,0,0,42,29,0,0,0,318,0,0,0,9,0
14596.0,0,0,27,0,0,0,0,0,100,0,100,0,100,0,50,50,0,0,0,72,2,0,0,0,318,0,0,0,8,1
14626.0,0,0,28,0,0,0,0,0,100,0,100,0,100,0,50,50,0,0,0,39,0,0,0,0,323,0,0,0,9,0
14656.0,0,0,28,0,0,0,0,0,100,0,100,0,100,0,50,50,0,0,0,39,0,0,0,0,326,0,0,0,9,0
14686.0,0,0,27,0,0,0,0,0,100,0,100,0,100,0,50,50,0,0,0,7,0,0,0,0,317,0,0,0,6,0
14716.0,0,0,27,0,0,0,0,0,100,0,100,0,100,0,50,50,0,0,0,7,0,0,0,0,317,0,0,0,6,0
14746.0,0,0,0,0,0,0,0,0,50,50,50,50,50,50,50,50,0,42,0,34,0,0,0,0,111,0,0,0,8,0
14776.0,0,0,0,0,0,0,0,0,50,50,50,50,50,50,50,50,0,42,0,46,0,0,0,0,97,0,0,0,15,0
14806.0,0,0,0,0,0,0,0,0,50,50,50,50,50,50,50,50,0,42,0,86,9,0,0,0,93,0,0,0,36,0
14836.0,0,0,0,0,0,0,0,0,50,50,50,50,50,50,50,50,0,40,0,86,9,0,0,0,7,0,0,0,36,0
14865.0,0,0,0,0,0,0,0,0,50,50,50,50,50,50,50,50,0,64,0,46,10,0,0,0,0,0,0,0,86,0
14895.0,0,0,0,0,0,0,0,0,50,50,50,50,50,50,50,50,0,29,0,46,10,0,1,0,0,0,0,0,89,0
14926.0,0,0,0,0,0,0,8,0,33,67,100,0,50,50,100,0,0,2,0,0,53,0,2,1,1,0,0,0,204,0
14956.0,0,0,0,0,0,0,8,0,33,67,100,0,50,50,100,0,0,0,0,0,53,0,2,0,0,0,0,0,204,0
14986.0,0,0,0,0,0,0,8,0,33,67,100,0,50,50,100,0,0,0,0,0,53,0,0,0,0,0,0,0,204,0
15015.0,0,0,0,0,0,0,68,0,0,100,100,0,50,50,100,0,0,0,0,42,0,0,1,0,0,0,0,0,587,1
15046.0,0,0,0,0,0,0,60,0,0,100,100,0,50,50,100,0,0,0,0,0,113,0,0,0,0,0,0,0,541,0
15076.0,0,0,0,0,0,0,60,0,0,100,100,0,50,50,100,0,0,0,0,0,113,0,1,0,0,0,0,0,541,0
15106.0,0,0,0,0,0,0,76,0,0,100,100,0,50,50,100,0,0,0,0,9,13,0,0,0,0,0,0,0,641,0
15136.0,0,0,0,0,0,0,76,0,0,100,100,0,50,50,100,0,0,0,0,9,13,0,0,0,0,0,0,0,641,0
15165.0,0,0,0,0,0,0,79,0,0,100,100,0,50,50,100,0,0,0,0,118,38,0,0,0,0,0,0,0,661,0
15195.0,0,0,0,0,0,0,79,0,0,100,100,0,50,50,100,0,0,0,0,118,38,0,0,0,0,0,0,0,661,0
15225.0,0,0,0,0,0,0,79,0,0,100,100,0,50,50,100,0,0,0,0,118,38,0,0,0,0,0,0,0,661,0
15256.0,0,0,0,0,0,0,76,0,0,100,100,0,50,50,100,0,0,0,0,0,0,0,0,0,0,0,0,0,641,0
15286.0,0,0,0,0,0,0,76,0,0,100,100,0,50,50,100,0,0,0,0,0,0,0,0,0,0,0,0,0,641,0
15315.0,0,0,0,0,0,0,47,0,0,100,100,0,50,50,100,0,0,0,0,50,94,0,0,0,0,0,1,0,452,0
15346.0,0,0,0,0,0,0,28,0,0,100,100,0,50,50,100,0,0,0,0,127,44,0,0,0,0,0,0,0,332,0
15376.0,0,0,0,0,0,0,27,0,0,100,100,0,50,50,100,0,0,0,0,127,44,0,0,0,0,0,0,0,324,0
15406.0,0,0,0,0,0,0,26,0,0,100,100,0,50,50,100,0,0,0,0,127,44,0,1,0,0,0,0,0,322,0
15436.0,0,0,0,0,0,0,0,0,50,50,50,50,50,50,50,50,0,0,0,107,148,0,1,0,0,0,0,0,73,0
15465.0,0,0,0,0,0,0,0,0,50,50,50,50,50,50,50,50,0,0,0,85,87,0,0,0,0,0,1,0,55,0
15496.0,0,0,0,0,0,0,0,0,50,50,50,50,50,50,50,50,0,0,0,0,46,0,0,0,3,0,0,0,40,0
15526.0,0,0,0,0,0,0,0,0,50,50,50,50,50,50,50,50,0,0,0,0,46,0,0,0,21,0,0,0,40,0
15556.0,0,0,0,0,0,0,0,0,50,50,50,50,50,50,50,50,0,0,0,18,1,0,0,0,22,0,0,0,21,0
15586.0,0,0,0,0,0,0,0,0,50,50,50,50,50,50,50,50,0,0,0,29,0,0,0,0,22,0,0,0,18,0
15615.0,0,0,6,0,0,0,0,0,66,34,100,0,100,0,50,50,0,100,0,29,0,0,0,0,187,0,0,0,18,0
15646.0,0,0,6,0,0,0,0,0,66,34,100,0,100,0,50,50,0,100,0,87,0,0,0,0,187,0,0,0,14,1
15676.0,0,0,6,0,0,0,0,0,66,34,100,0,100,0,50,50,0,100,0,88,0,0,0,0,187,0,0,0,14,0
15706.0,0,0,24,0,0,0,0,0,100,0,100,0,100,0,50,50,0,14,0,76,0,0,0,0,298,0,0,0,7,0
15736.0,0,0,24,0,0,0,0,0,100,0,100,0,100,0,50,50,0,14,0,76,0,0,0,0,298,0,0,0,7,0
15766.0,0,0,24,0,0,0,0,0,100,0,100,0,100,0,50,50,0,14,0,76,0,0,0,0,298,0,0,0,7,0
15796.0,0,0,24,0,0,0,0,0,100,0,100,0,100,0,50,50,0,14,0,32,0,0,0,0,298,0,0,0,6,0
15826.0,0,0,24,0,0,0,0,0,100,0,100,0,100,0,50,50,0,14,0,67,0,0,0,0,298,0,0,0,11,0
15856.0,0,0,32,0,0,0,0,0,100,0,100,0,100,0,50,50,0,0,0,64,0,0,0,0,346,0,0,0,8,0
15886.0,0,0,28,0,0,0,0,0,100,0,100,0,100,0,50,50,0,0,0,64,0,0,0,0,324,0,0,0,8,0
15916.0,0,0,28,0,0,0,0,0,100,0,100,0,100,0,50,50,0,0,0,10,3,0,0,0,324,0,0,0,14,0
15946.0,0,0,10,0,0,0,0,0,100,0,100,0,100,0,50,50,0,0,0,28,35,0,1,0,212,0,0,0,9,0
15976.0,0,0,0,0,0,0,0,0,50,50,50,50,50,50,50,50,0,0,0,79,47,0,0,0,129,0,0,0,10,0
16006.0,0,0,0,0,0,0,0,0,50,50,50,50,50,50,50,50,0,69,0,89,50,0,0,0,70,0,0,0,9,0
16036.0,0,0,0,0,0,0,0,0,50,50,50,50,50,50,50,50,0,69,0,89,50,0,0,0,70,0,0,0,9,0
16066.0,0,0,0,0,0,0,0,0,50,50,50,50,50,50,50,50,0,69,0,59,0,0,0,0,70,0,0,0,14,0
16096.0,0,0,0,0,0,0,0,0,50,50,50,50,50,50,50,50,0,0,0,59,0,0,0,0,0,0,0,0,14,0
16126.0,0,0,0,0,0,0,0,0,50,50,50,50,50,50,50,50,0,0,0,10,0,0,0,0,0,0,0,0,17,0
16156.0,0,0,0,0,0,0,0,0,50,50,50,50,50,50,50,50,0,0,0,29,6,0,1,0,0,0,0,0,28,0
16186.0,0,0,0,0,0,0,0,0,50,50,50,50,50,50,50,50,0,0,0,29,6,0,0,0,0,0,0,0,28,0
16216.0,0,0,0,0,0,0,0,0,50,50,50,50,50,50,50,50,0,0,0,37,31,0,0,0,0,0,0,0,59,0
16246.0,0,0,0,0,0,0,0,0,50,50,50,50,50,50,50,50,0,0,0,37,31,0,0,0,0,0,0,0,59,0
16276.0,0,0,0,0,0,0,0,0,50,50,50,50,50,50,50,50,0,0,0,37,31,0,0,0,0,0,0,0,59,0
16306.0,0,0,0,0,0,0,31,0,0,100,100,0,50,50,100,0,0,0,0,187,101,0,0,0,0,0,0,0,354,0
16336.0,0,0,0,0,0,0,31,0,0,100,100,0,50,50,100,0,0,0,0,187,101,0,0,0,0,0,0,0,354,0
16366.0,0,0,0,0,0,0,31,0,0,100,100,0,50,50,100,0,0,0,0,187,101,0,0,0,0,0,0,0,354,0
16395.0,0,0,0,0,0,0,74,0,0,100,100,0,50,50,100,0,0,0,0,171,192,0,0,0,0,0,0,0,626,0
16426.0,0,0,0,0,0,0,74,0,0,100,100,0,50,50,100,0,0,0,0,171,192,0,0,0,0,0,0,0,626,0
16456.0,0,0,0,0,0,0,81,0,0,100,100,0,50,50,100,0,0,0,0,216,285,0,0,0,0,0,0,0,672,0
16486.0,0,0,0,0,0,0,81,0,0,100,100,0,50,50,100,0,0,0,0,195,279,0,1,0,0,0,0,0,672,0
16516.0,0,0,0,0,0,0,81,0,0,100,100,0,50,50,100,0,0,0,0,0,12,0,0,0,0,0,1,0,672,0
16546.0,0,0,0,0,0,0,80,0,0,100,100,0,50,50,100,0,0,0,0,104,143,0,0,0,0,0,0,0,663,0
16576.0,0,0,0,0,0,0,45,0,0,100,100,0,50,50,100,0,0,0,0,0,68,0,0,0,0,0,0,0,442,0
16606.0,0,0,0,0,0,0,28,0,0,100,100,0,50,50,100,0,0,0,0,0,109,0,0,0,0,0,0,0,336,0
16636.0,0,0,0,0,0,0,16,0,0,100,100,0,50,50,100,0,0,0,0,23,137,0,0,0,0,0,0,0,258,0
16666.0,0,0,0,0,0,0,3,0,33,67,100,0,50,50,100,0,0,0,0,48,142,0,0,0,0,0,0,0,176,0
16696.0,0,0,0,0,0,0,3,0,33,67,100,0,50,50,100,0,0,0,0,48,142,0,0,0,0,0,0,0,176,0
16726.0,0,0,0,0,0,0,0,0,50,50,50,50,50,50,50,50,0,0,0,0,103,0,0,0,0,0,0,0,60,0
16756.0,0,0,0,0,0,0,0,0,50,50,50,50,50,50,50,50,0,0,0,0,103,0,1,0,0,0,0,0,60,0
16786.0,0,0,0,0,0,0,0,0,50,50,50,50,50,50,50,50,0,0,0,0,103,0,1,0,0,0,0,0,60,0
16816.0,0,0,0,0,0,0,0,0,50,50,50,50,50,50,50,50,0,0,0,96,65,0,1,0,0,0,0,0,15,0
16846.0,0,0,0,0,0,0,0,0,50,50,50,50,50,50,50,50,0,0,0,96,65,0,0,0,0,0,0,0,12,0
16876.0,0,0,0,0,0,0,0,0,50,50,50,50,50,50,50,50,0,0,0,50,0,0,0,0,0,0,0,0,14,1
16906.0,0,0,0,0,0,0,0,0,50,50,50,50,50,50,50,50,0,0,0,0,0,0,1,0,0,0,0,0,10,0
16936.0,0,0,0,0,0,0,0,0,50,50,50,50,50,50,50,50,0,0,0,0,0,0,1,0,0,0,0,0,10,0
16965.0,0,0,0,0,0,0,0,0,50,50,50,50,50,50,50,50,0,0,0,0,0,0,1,0,0,0,0,0,5,0
16996.0,0,0,0,0,0,0,0,0,50,50,50,50,50,50,50,50,0,0,0,0,0,0,0,0,0,0,2,0,7,0
17026.0,0,0,0,0,0,0,0,0,50,50,50,50,50,50,50,50,0,0,0,0,0,0,0,0,0,0,2,0,7,0
17056.0,0,0,0,0,0,0,0,0,50,50,50,50,50,50,50,50,0,0,0,0,0,0,1,0,0,0,2,0,7,0
17086.0,0,0,0,0,0,0,0,0,50,50,50,50,50,50,50,50,0,0,0,0,0,0,1,0,0,0,0,0,3,0
17116.0,0,0,0,0,0,0,0,0,50,50,50,50,50,50,50,50,0,0,0,0,0,0,0,0,0,0,0,0,3,0
17146.0,0,0,0,0,0,0,0,0,50,50,50,50,50,50,50,50,0,0,0,0,0,0,3,0,0,0,0,0,4,0
17176.0,0,0,0,0,0,0,0,0,50,50,50,50,50,50,50,50,156,0,0,0,0,0,0,0,0,0,0,0,3,0
17206.0,0,0,0,0,0,0,0,0,50,50,50,50,50,50,50,50,157,0,0,0,0,0,0,0,0,0,0,0,3,0
17236.0,0,0,0,0,0,0,0,0,50,50,50,50,50,50,50,50,157,0,0,0,0,0,0,0,0,0,0,0,3,0
17266.0,0,0,0,0,0,0,0,0,50,50,50,50,50,50,50,50,157,0,0,0,0,0,0,0,0,0,0,0,3,0
17296.0,0,0,0,0,0,0,0,0,50,50,50,50,50,50,50,50,157,0,0,0,0,0,0,0,0,0,0,0,3,0
17326.0,0,0,0,0,0,0,0,0,50,50,50,50,50,50,50,50,157,0,0,0,0,0,0,0,0,0,0,0,2,0
17356.0,0,0,0,0,0,0,0,0,50,50,50,50,50,50,50,50,157,0,0,0,0,0,0,0,0,0,0,0,1,0
17386.0,0,0,0,0,0,0,0,0,50,50,50,50,50,50,50,50,0,0,0,0,0,0,0,0,0,0,0,0,1,0
17416.0,0,0,0,0,0,0,0,0,50,50,50,50,50,50,50,50,0,0,0,0,0,0,0,0,0,0,0,0,1,0
17446.0,0,0,0,0,0,0,0,0,50,50,50,50,50,50,50,50,0,0,0,0,0,0,0,0,0,0,0,0,1,0
17476.0,0,0,0,0,0,0,0,0,50,50,50,50,50,50,50,50,0,0,0,0,0,0,0,0,0,0,0,0,1,0
17506.0,0,0,0,0,0,0,0,0,50,50,50,50,50,50,50,50,0,0,0,0,0,0,0,0,0,0,0,0,1,0
17536.0,0,0,0,0,0,0,0,0,50,50,50,50,50,50,50,50,72,70,0,59,0,0,0,0,0,0,0,0,4,0
17566.0,0,0,0,0,0,0,0,0,50,50,50,50,50,50,50,50,72,70,0,59,0,0,0,0,0,0,0,0,4,0
17596.0,0,0,0,0,0,0,0,0,50,50,50,50,50,50,50,50,0,0,0,0,46,0,0,0,0,0,0,0,2,0
17626.0,0,0,0,0,0,0,0,0,50,50,50,50,50,50,50,50,29,0,0,0,46,0,0,0,0,0,0,0,2,0
17656.0,0,0,0,0,0,0,0,0,50,50,50,50,50,50,50,50,29,0,0,0,46,0,0,0,0,0,0,0,2,0
17686.0,0,0,0,0,0,0,0,0,50,50,50,50,50,50,50,50,29,0,0,86,0,0,0,0,0,0,0,0,3,0
17716.0,0,0,0,0,0,0,0,0,50,50,50,50,50,50,50,50,0,0,0,86,0,0,0,0,0,0,0,0,3,0
17745.0,0,0,0,0,0,0,0,0,50,50,50,50,50,50,50,50,0,0,0,263,0,0,0,0,0,0,0,0,6,0
17775.0,0,0,0,0,0,0,0,0,50,50,50,50,50,50,50,50,0,0,0,184,26,0,2,1,0,0,0,0,4,0
17806.0,0,0,0,0,0,0,0,0,50,50,50,50,50,50,50,50,0,0,0,184,26,0,2,1,0,0,0,0,4,0
17836.0,0,0,0,0,0,0,0,0,50,50,50,50,50,50,50,50,0,0,0,185,9,0,2,1,0,0,0,0,3,0
17866.0,0,0,0,0,0,0,0,0,50,50,50,50,50,50,50,50,38,68,0,154,9,0,1,0,0,0,0,0,1,1
17896.0,0,0,0,0,0,0,0,0,50,50,50,50,50,50,50,50,38,68,0,219,32,0,1,0,0,0,0,0,2,0
17925.0,0,0,0,0,0,0,0,0,50,50,50,50,50,50,50,50,38,68,0,219,32,0,1,0,0,0,0,0,2,0
17956.0,0,0,0,0,0,0,0,0,50,50,50,50,50,50,50,50,97,36,0,107,59,0,0,0,0,0,0,0,3,0
17985.0,0,0,0,0,0,0,0,0,50,50,50,50,50,50,50,50,50,36,0,35,44,0,0,0,0,0,0,0,0,0
18016.0,0,0,0,0,0,0,0,0,50,50,50,50,50,50,50,50,50,36,0,37,24,0,0,0,0,0,0,0,2,0
18046.0,0,0,0,0,0,0,0,0,50,50,50,50,50,50,50,50,50,36,0,98,40,0,0,0,0,0,0,0,0,0
18075.0,0,0,0,0,0,0,0,0,50,50,50,50,50,50,50,50,0,22,0,108,31,0,0,0,0,0,0,0,2,0
18106.0,0,0,0,0,0,0,0,0,50,50,50,50,50,50,50,50,0,17,0,108,31,0,2,1,0,0,0,0,2,0
18136.0,0,0,0,0,0,0,0,0,50,50,50,50,50,50,50,50,23,54,0,108,31,0,0,0,0,0,0,0,2,0
18166.0,0,0,0,0,0,0,0,0,50,50,50,50,50,50,50,50,48,43,0,97,45,0,0,0,0,0,0,0,0,0
18196.0,0,0,0,0,0,0,0,0,50,50,50,50,50,50,50,50,0,43,0,97,45,0,0,0,0,0,0,0,0,0
18225.0,0,0,0,0,0,0,0,0,50,50,50,50,50,50,50,50,0,35,0,97,45,0,0,0,0,0,0,0,0,0
18256.0,0,0,0,0,0,0,0,0,50,50,50,50,50,50,50,50,0,35,0,97,45,0,0,0,0,0,0,0,0,0
18286.0,0,0,0,0,0,0,0,0,50,50,50,50,50,50,50,50,0,49,0,97,45,0,0,1,0,0,0,0,0,0
18316.0,0,0,0,0,0,0,0,0,50,50,50,50,50,50,50,50,19,47,0,97,45,0,0,0,0,0,0,0,0,0
18346.0,0,0,0,0,0,0,0,0,50,50,50,50,50,50,50,50,0,46,0,149,0,0,0,0,0,0,0,0,0,0
18375.0,0,0,0,0,0,0,0,0,50,50,50,50,50,50,50,50,0,22,0,171,5,0,0,0,0,0,0,0,1,0
18406.0,0,0,0,0,0,0,0,0,50,50,50,50,50,50,50,50,0,22,0,171,5,0,0,0,0,0,0,0,1,0
18436.0,0,0,0,0,0,0,0,0,50,50,50,50,50,50,50,50,0,22,0,212,30,0,0,0,0,0,0,0,0,0
18466.0,0,0,0,0,0,0,0,0,50,50,50,50,50,50,50,50,0,22,0,212,30,0,0,0,0,0,0,0,0,0
18496.0,0,0,0,0,0,0,0,0,50,50,50,50,50,50,50,50,0,22,0,187,19,0,0,0,0,0,0,1,0,0
18526.0,0,0,0,0,0,0,0,0,50,50,50,50,50,50,50,50,0,57,0,187,19,0,1,0,0,0,0,1,0,0
18556.0,0,0,0,0,0,0,0,0,50,50,50,50,50,50,50,50,0,51,0,96,22,0,1,2,10,0,0,0,1,0
18586.0,0,0,0,0,0,0,0,0,50,50,50,50,50,50,50,50,0,51,0,96,22,0,1,2,10,0,0,0,1,0
18615.0,0,0,13,0,0,0,0,0,100,0,100,0,100,0,50,50,141,0,0,96,22,0,1,0,229,0,0,0,1,0
18646.0,0,0,9,0,0,0,0,0,66,34,100,0,100,0,50,50,251,0,0,96,22,0,0,0,207,0,0,0,1,0
18676.0,0,0,21,0,0,0,0,0,100,0,100,0,100,0,50,50,0,46,0,96,22,0,0,0,280,0,0,0,1,0
18705.0,0,0,22,0,0,0,0,0,100,0,100,0,100,0,50,50,0,37,0,102,0,0,0,0,287,0,0,0,7,0
18736.0,0,0,22,0,0,0,0,0,100,0,100,0,100,0,50,50,29,50,0,114,0,0,0,0,288,0,0,0,7,0
18766.0,0,0,22,0,0,0,0,0,100,0,100,0,100,0,50,50,29,50,0,114,0,0,0,0,288,0,0,0,7,0
18796.0,0,0,5,0,0,0,0,0,66,34,100,0,100,0,50,50,0,0,0,212,16,0,0,0,181,2,1,0,5,0
18826.0,0,0,5,0,0,0,0,0,66,34,100,0,100,0,50,50,0,0,0,150,2,0,0,0,181,2,0,0,5,0
18856.0,0,0,5,0,0,0,0,0,66,34,100,0,100,0,50,50,0,0,0,148,0,0,0,0,181,2,0,0,4,0
18886.0,0,0,5,0,0,0,0,0,66,34,100,0,100,0,50,50,0,0,0,148,0,0,0,0,181,2,0,0,4,0
18916.0,0,0,5,0,0,0,0,0,66,34,100,0,100,0,50,50,0,0,0,182,11,0,0,0,181,2,0,0,1,0
18946.0,0,0,0,0,0,0,0,0,50,50,50,50,50,50,50,50,0,38,0,170,21,0,0,0,0,0,0,1,2,0
18976.0,0,0,0,0,0,0,0,0,50,50,50,50,50,50,50,50,0,38,0,181,11,0,0,0,0,0,0,0,2,0
19006.0,0,0,0,0,0,0,0,0,50,50,50,50,50,50,50,50,0,38,0,181,11,0,0,0,0,0,0,0,2,0
19036.0,0,0,0,0,0,0,0,0,50,50,50,50,50,50,50,50,0,38,0,161,3,0,0,0,0,0,0,0,12,0
19066.0,0,0,0,0,0,0,0,0,50,50,50,50,50,50,50,50,0,18,0,161,3,0,0,0,0,0,0,0,12,0
19096.0,0,0,0,0,0,0,0,0,50,50,50,50,50,50,50,50,0,18,0,172,0,0,0,0,0,0,0,0,16,0
19126.0,0,0,0,0,0,0,0,0,50,50,50,50,50,50,50,50,0,18,0,191,0,0,0,0,0,0,0,0,26,0
19156.0,0,0,0,0,0,0,0,0,50,50,50,50,50,50,50,50,0,15,0,219,23,0,0,0,0,0,0,0,40,0
19186.0,0,0,0,0,0,0,2,0,33,67,100,0,50,50,100,0,0,15,0,190,21,0,0,0,0,0,1,0,170,0
19216.0,0,0,0,0,0,0,14,0,0,100,100,0,50,50,100,0,0,37,0,156,9,0,0,0,0,0,0,0,247,0
19246.0,0,0,0,0,0,0,16,0,0,100,100,0,50,50,100,0,0,37,0,156,9,0,0,0,0,0,0,0,254,0
19276.0,0,0,0,0,0,0,16,0,0,100,100,0,50,50,100,0,0,37,0,156,9,0,0,0,0,0,0,0,256,0
19306.0,0,0,0,0,0,0,69,0,0,100,100,0,50,50,100,0,0,37,0,157,35,0,0,0,0,0,0,0,595,0
19336.0,0,0,0,0,0,0,71,0,0,100,100,0,50,50,100,0,0,37,0,0,0,0,0,0,0,0,0,0,608,0
19366.0,0,0,0,0,0,0,71,0,0,100,100,0,50,50,100,0,4,20,0,0,0,0,1,0,0,0,0,0,608,0
19396.0,0,0,0,0,0,0,82,0,0,100,100,0,50,50,100,0,0,11,0,145,32,0,0,0,0,0,0,0,679,0
19426.0,0,0,0,0,0,0,83,0,0,100,100,0,50,50,100,0,0,16,0,110,15,0,0,0,0,0,0,0,682,0
19456.0,0,0,0,0,0,0,71,0,0,100,100,0,50,50,100,0,9,16,0,110,50,0,0,1,0,0,0,0,610,0
19486.0,0,0,0,0,0,0,58,0,0,100,100,0,50,50,100,0,9,16,0,99,44,0,0,1,0,0,1,0,525,0
19516.0,0,0,0,0,0,0,22,0,0,100,100,0,50,50,100,0,0,30,0,113,29,0,0,0,0,0,0,0,298,0
19546.0,0,0,0,0,0,0,29,0,0,100,100,0,50,50,100,0,0,30,0,113,29,0,0,0,0,0,0,0,342,0
19576.0,0,0,0,0,0,0,0,0,50,50,50,50,50,50,50,50,0,30,0,97,31,0,0,0,0,0,0,0,98,0
19606.0,0,0,0,0,0,0,0,0,50,50,50,50,50,50,50,50,0,34,0,89,32,0,0,0,0,0,0,0,69,0
19636.0,0,0,0,0,0,0,0,0,50,50,50,50,50,50,50,50,0,35,0,89,32,0,0,0,0,0,0,0,69,0
19666.0,0,0,0,0,0,0,0,0,50,50,50,50,50,50,50,50,36,28,0,89,0,0,0,0,0,0,0,0,27,0
19696.0,0,0,0,0,0,0,0,0,50,50,50,50,50,50,50,50,5,17,0,89,0,0,0,0,0,0,0,0,27,0
19726.0,0,0,0,0,0,0,0,0,50,50,50,50,50,50,50,50,0,31,0,192,26,0,0,0,0,0,0,0,8,0
19756.0,0,0,0,0,0,0,0,0,50,50,50,50,50,50,50,50,5,45,0,192,26,0,0,0,0,0,0,0,7,0
19786.0,0,0,0,0,0,0,0,0,50,50,50,50,50,50,50,50,0,48,0,76,0,0,2,0,0,0,0,0,8,0
19816.0,0,0,0,0,0,0,0,0,50,50,50,50,50,50,50,50,0,48,0,76,0,0,2,0,0,0,0,0,8,0
19846.0,0,0,0,0,0,0,0,0,50,50,50,50,50,50,50,50,0,48,0,163,13,0,0,0,0,0,0,0,8,0
19876.0,0,0,0,0,0,0,0,0,50,50,50,50,50,50,50,50,0,48,0,143,17,0,0,0,0,0,0,0,4,0
19906.0,0,0,0,0,0,0,0,0,50,50,50,50,50,50,50,50,0,56,0,143,17,0,0,0,0,0,0,0,4,0
19936.0,0,0,0,0,0,0,0,0,50,50,50,50,50,50,50,50,0,56,0,144,18,0,0,0,0,0,0,0,8,0
19966.0,0,0,0,0,0,0,0,0,50,50,50,50,50,50,50,50,0,56,0,150,17,0,0,0,0,0,0,0,8,0
19996.0,0,0,0,0,0,0,0,0,50,50,50,50,50,50,50,50,0,72,0,130,17,0,0,0,80,0,0,0,6,0
20026.0,0,0,0,0,0,0,0,0,50,50,50,50,50,50,50,50,0,34,0,130,17,0,0,0,124,0,0,0,6,0
20056.0,0,0,2,0,0,0,0,0,66,34,100,0,100,0,50,50,69,62,0,130,17,0,0,0,164,0,0,0,6,0
20086.0,0,0,2,0,0,0,0,0,66,34,100,0,100,0,50,50,69,62,0,127,11,0,0,0,164,0,0,0,6,0
20116.0,0,0,3,0,0,0,0,0,66,34,100,0,100,0,50,50,0,10,0,127,11,0,0,0,170,0,0,0,6,0
20145.0,0,0,2,0,0,0,0,0,66,34,100,0,100,0,50,50,55,41,0,110,0,0,1,0,162,0,0,0,3,0
20176.0,0,0,0,0,0,0,0,0,50,50,50,50,50,50,50,50,34,36,0,110,0,0,0,0,96,0,0,0,3,0
20206.0,0,0,0,0,0,0,0,0,50,50,50,50,50,50,50,50,34,36,0,110,0,0,0,0,96,0,0,0,3,0
20236.0,0,0,0,0,0,0,0,0,50,50,50,50,50,50,50,50,34,36,0,110,0,0,0,0,96,0,0,0,3,0
20266.0,0,0,0,0,0,0,0,0,50,50,50,50,50,50,50,50,34,36,0,147,22,0,0,0,96,0,0,0,8,0
20296.0,0,0,0,0,0,0,0,0,50,50,50,50,50,50,50,50,34,36,0,147,22,0,0,0,96,0,0,0,8,0
20326.0,0,0,0,0,0,0,0,0,50,50,50,50,50,50,50,50,34,62,0,147,22,0,1,0,2,0,0,0,8,0
20356.0,0,0,0,0,0,0,0,0,50,50,50,50,50,50,50,50,34,62,0,147,22,0,1,0,2,0,0,0,8,0
20386.0,0,0,0,0,0,0,0,0,50,50,50,50,50,50,50,50,0,72,0,147,22,0,0,0,0,0,0,0,8,0
20416.0,0,0,0,0,0,0,0,0,50,50,50,50,50,50,50,50,0,72,0,105,31,0,0,0,0,0,0,0,74,0
20446.0,0,0,0,0,0,0,0,0,50,50,50,50,50,50,50,50,10,30,0,105,31,0,0,0,0,0,0,0,74,0
20476.0,0,0,0,0,0,0,0,0,50,50,50,50,50,50,50,50,10,30,0,145,26,0,0,0,0,0,0,0,121,0
20506.0,0,0,0,0,0,0,0,0,50,50,50,50,50,50,50,50,10,30,0,145,26,0,0,0,0,0,0,0,121,0
20535.0,0,0,0,0,0,0,0,0,50,50,50,50,50,50,50,50,26,22,0,145,26,0,0,0,0,0,0,0,121,0
20566.0,0,0,0,0,0,0,26,0,0,100,100,0,50,50,100,0,0,29,0,152,0,0,0,1,0,0,0,0,319,0
20596.0,0,0,0,0,0,0,36,0,0,100,100,0,50,50,100,0,0,29,0,158,24,0,0,1,0,0,0,0,385,0
20626.0,0,0,0,0,0,0,52,0,0,100,100,0,50,50,100,0,0,29,0,148,40,0,0,1,0,0,0,0,484,0
20656.0,0,0,0,0,0,0,61,0,0,100,100,0,50,50,100,0,0,29,0,199,27,0,0,1,0,0,0,0,543,0
20686.0,0,0,0,0,0,0,69,0,0,100,100,0,50,50,100,0,0,29,0,89,41,0,0,1,0,0,0,0,593,0
20716.0,0,0,0,0,0,0,78,0,0,100,100,0,50,50,100,0,30,36,0,78,0,0,0,0,0,0,0,0,652,0
20746.0,0,0,0,0,0,0,84,0,0,100,100,0,50,50,100,0,30,36,0,106,24,0,0,0,0,0,0,0,690,0
20776.0,0,0,0,0,0,0,85,0,0,100,100,0,50,50,100,0,0,43,0,65,47,0,0,0,0,0,0,0,700,0
20806.0,0,0,0,0,0,0,85,0,0,100,100,0,50,50,100,0,0,43,0,65,47,0,0,0,0,0,0,0,700,0
20835.0,0,0,0,0,0,0,83,0,0,100,100,0,50,50,100,0,0,51,0,108,34,0,0,0,0,0,3,0,686,0
20866.0,0,0,0,0,0,0,40,0,0,100,100,0,50,50,100,0,17,60,0,122,54,0,0,0,0,0,0,0,410,0
20896.0,0,0,0,0,0,0,37,0,0,100,100,0,50,50,100,0,0,65,0,122,54,0,0,0,1,0,0,0,392,0
20926.0,0,0,0,0,0,0,13,0,0,100,100,0,50,50,100,0,42,57,0,109,51,0,0,0,0,0,0,0,239,0
20956.0,0,0,0,0,0,0,0,0,50,50,50,50,50,50,50,50,32,41,0,100,77,0,0,0,0,0,0,0,84,0
20985.0,0,0,0,0,0,0,0,0,50,50,50,50,50,50,50,50,32,41,0,41,71,0,0,0,0,0,0,0,45,0
21016.0,0,0,0,0,0,0,0,0,50,50,50,50,50,50,50,50,32,41,0,103,51,0,0,0,0,0,0,0,18,1
21046.0,0,0,0,0,0,0,0,0,50,50,50,50,50,50,50,50,32,41,0,101,66,0,0,0,0,0,0,0,15,0
21076.0,0,0,0,0,0,0,0,0,50,50,50,50,50,50,50,50,32,41,0,120,35,0,0,0,0,0,0,1,14,0
21106.0,0,0,0,0,0,0,0,0,50,50,50,50,50,50,50,50,0,28,0,120,35,0,0,0,0,0,0,1,14,0
21135.0,0,0,0,0,0,0,0,0,50,50,50,50,50,50,50,50,0,0,0,164,0,0,1,0,1,0,0,0,8,0
21166.0,0,0,0,0,0,0,0,0,50,50,50,50,50,50,50,50,0,0,0,155,0,0,1,0,1,0,0,1,7,0
21196.0,0,0,0,0,0,0,0,0,50,50,50,50,50,50,50,50,0,0,0,178,0,0,1,0,1,0,0,0,7,0
21226.0,0,0,0,0,0,0,0,0,50,50,50,50,50,50,50,50,0,16,0,190,0,0,0,0,0,0,1,0,5,0
21256.0,0,0,0,0,0,0,0,0,50,50,50,50,50,50,50,50,0,9,0,51,36,0,2,0,0,5,0,0,2,0
21286.0,0,0,0,0,0,0,0,0,50,50,50,50,50,50,50,50,0,9,0,252,59,0,2,0,0,5,0,0,3,0
21315.0,0,0,0,0,0,0,0,0,50,50,50,50,50,50,50,50,0,9,0,290,0,51,2,0,0,5,0,1,2,0
21346.0,0,0,0,0,0,0,0,0,50,50,50,50,50,50,50,50,0,9,0,290,0,51,2,0,0,5,0,1,2,0
21376.0,0,0,0,0,0,0,0,0,50,50,50,50,50,50,50,50,0,9,0,290,0,51,2,0,0,5,0,1,2,0
21406.0,0,0,0,0,0,0,0,0,50,50,50,50,50,50,50,50,0,25,0,506,0,0,1,0,0,2,0,0,2,0
21436.0,0,0,0,0,0,0,0,0,50,50,50,50,50,50,50,50,0,25,0,123,0,0,1,0,0,2,0,0,0,0
21466.0,0,0,0,0,0,0,0,0,50,50,50,50,50,50,50,50,0,25,0,271,0,0,1,0,0,2,0,0,2,1
21496.0,0,0,0,0,0,0,0,0,50,50,50,50,50,50,50,50,0,25,0,287,0,0,1,0,0,2,0,0,0,0
21526.0,0,0,0,0,0,0,0,0,50,50,50,50,50,50,50,50,0,0,0,287,0,0,1,0,0,0,0,0,0,0
21556.0,0,0,0,0,0,0,0,0,50,50,50,50,50,50,50,50,0,5,0,387,0,0,0,0,0,1,0,0,0,0
21586.0,0,0,0,0,0,0,0,0,50,50,50,50,50,50,50,50,0,7,0,339,0,0,0,0,0,0,0,0,0,0
21616.0,0,0,0,0,0,0,0,0,50,50,50,50,50,50,50,50,0,39,0,339,0,0,0,1,0,2,0,0,0,0
21646.0,0,0,0,0,0,0,0,0,50,50,50,50,50,50,50,50,0,39,0,339,0,0,0,1,0,2,0,0,0,0
21676.0,0,0,0,0,0,0,0,0,50,50,50,50,50,50,50,50,0,28,0,339,0,0,0,0,0,0,0,0,0,0
21706.0,0,0,0,0,0,0,0,0,50,50,50,50,50,50,50,50,0,28,0,326,0,0,0,0,0,0,0,0,0,2
21736.0,0,0,0,0,0,0,0,0,50,50,50,50,50,50,50,50,0,115,0,339,0,0,1,0,0,0,0,0,0,0
21766.0,0,0,0,0,0,0,0,0,50,50,50,50,50,50,50,50,0,104,0,339,0,0,0,0,0,6,0,0,0,0
21796.0,0,0,0,0,0,0,0,0,50,50,50,50,50,50,50,50,0,104,0,369,0,0,0,0,0,6,0,0,0,0
21826.0,0,0,0,0,0,0,0,0,50,50,50,50,50,50,50,50,0,82,0,373,0,0,0,0,0,20,0,0,0,5
21856.0,0,0,0,0,0,0,0,0,50,50,50,50,50,50,50,50,0,78,0,235,0,0,1,0,0,25,0,0,0,5
21886.0,0,0,0,0,0,0,0,0,50,50,50,50,50,50,50,50,0,143,0,235,0,0,0,0,0,25,0,0,0,5
21916.0,0,0,0,0,0,0,0,0,50,50,50,50,50,50,50,50,25,180,0,317,0,0,0,0,0,27,1,0,0,3
21946.0,0,0,0,0,0,0,0,0,50,50,50,50,50,50,50,50,99,122,0,317,0,0,0,0,0,25,1,0,0,3
21975.0,0,0,0,0,0,0,0,0,50,50,50,50,50,50,50,50,99,122,0,317,0,0,0,0,0,25,1,0,0,3
22006.0,0,0,0,0,0,0,0,0,50,50,50,50,50,50,50,50,109,59,0,317,0,0,3,0,0,23,1,0,0,3
22036.0,0,0,0,0,0,0,0,0,50,50,50,50,50,50,50,50,109,59,0,0,120,0,3,0,0,23,0,0,0,0
22066.0,0,0,0,0,0,0,0,0,50,50,50,50,50,50,50,50,75,0,0,0,120,0,1,0,0,9,0,0,0,0
22096.0,0,0,0,0,0,0,0,0,50,50,50,50,50,50,50,50,75,0,0,0,0,0,1,0,0,9,0,0,0,0
22126.0,0,0,0,0,0,0,0,0,50,50,50,50,50,50,50,50,45,7,0,0,9,0,0,0,0,11,0,0,0,0
22156.0,0,0,0,0,0,0,0,0,50,50,50,50,50,50,50,50,45,7,0,0,9,0,0,0,0,11,0,0,0,0
22186.0,0,0,0,0,0,0,0,0,50,50,50,50,50,50,50,50,0,10,0,0,0,0,0,0,0,15,0,0,0,1
22216.0,0,0,0,0,0,0,0,0,50,50,50,50,50,50,50,50,0,20,0,0,95,0,1,0,0,12,0,0,0,0
22246.0,0,0,0,0,0,0,0,0,50,50,50,50,50,50,50,50,0,51,0,0,46,0,0,0,0,15,0,0,0,0
22276.0,0,0,0,0,0,0,0,0,50,50,50,50,50,50,50,50,0,51,0,0,35,0,0,0,0,15,0,0,0,4
22306.0,0,0,0,0,0,0,0,0,50,50,50,50,50,50,50,50,0,25,0,0,35,0,0,0,0,16,0,0,0,4
22336.0,0,0,0,0,0,0,0,0,50,50,50,50,50,50,50,50,0,68,0,0,55,0,0,0,0,13,0,0,0,12
22366.0,0,0,0,0,0,0,0,0,50,50,50,50,50,50,50,50,0,68,0,0,0,0,0,0,0,13,1,0,0,12
22396.0,0,0,0,0,0,0,0,0,50,50,50,50,50,50,50,50,0,68,0,0,0,0,0,0,0,13,1,0,0,12
22426.0,0,0,0,0,0,0,0,0,50,50,50,50,50,50,50,50,0,23,0,0,74,0,0,0,0,22,0,0,0,22
22456.0,0,0,0,0,0,0,0,0,50,50,50,50,50,50,50,50,0,23,0,0,74,0,0,0,0,22,0,0,0,22
22486.0,0,0,0,0,0,0,0,0,50,50,50,50,50,50,50,50,0,23,0,0,75,0,0,0,0,22,0,0,1,27
22516.0,0,0,0,0,0,0,0,0,50,50,50,50,50,50,50,50,0,23,0,0,29,0,0,0,0,22,0,0,1,27
22546.0,0,0,0,0,0,0,0,0,50,50,50,50,50,50,50,50,0,72,0,0,29,0,0,0,0,84,0,0,1,27
22576.0,0,0,0,21,0,0,0,0,100,0,0,100,0,100,50,50,37,87,0,0,12,0,0,0,0,229,0,0,0,21
22606.0,0,0,0,23,0,0,0,0,100,0,0,100,0,100,50,50,37,87,0,0,0,0,0,0,0,235,0,0,0,17
22636.0,0,0,0,23,0,0,0,0,100,0,0,100,0,100,50,50,37,87,0,0,0,0,0,0,0,236,0,0,0,17
22665.0,0,0,0,75,0,0,0,0,100,0,0,100,0,100,50,50,15,70,0,0,0,0,1,0,0,492,0,0,0,17
22696.0,0,0,0,75,0,0,0,0,100,0,0,100,0,100,50,50,15,70,0,0,0,0,1,0,0,492,0,0,0,17
22726.0,0,0,0,94,0,0,0,0,100,0,0,100,0,100,50,50,0,44,0,0,0,0,0,0,0,590,0,0,0,10
22756.0,0,0,0,94,0,0,0,0,100,0,0,100,0,100,50,50,0,44,0,0,0,0,0,0,0,590,0,0,0,10
22786.0,0,0,0,97,0,0,0,0,100,0,0,100,0,100,50,50,0,42,0,0,0,0,0,0,1,605,0,0,0,10
22816.0,0,0,0,95,0,0,0,0,100,0,0,100,0,100,50,50,0,22,0,0,0,0,0,0,0,592,0,0,0,10
22846.0,0,0,0,64,0,0,0,0,100,0,0,100,0,100,50,50,0,0,0,0,0,0,0,0,1,438,0,0,0,32
22876.0,0,0,0,62,0,0,0,0,100,0,0,100,0,100,50,50,0,0,0,0,0,0,0,0,1,431,0,0,0,30
22906.0,0,0,0,62,0,0,0,0,100,0,0,100,0,100,50,50,0,0,0,0,0,0,0,0,1,429,0,0,0,30
22936.0,0,0,0,62,0,0,0,0,100,0,0,100,0,100,50,50,0,0,0,0,0,0,0,0,1,429,0,0,0,30
22966.0,0,0,0,62,0,0,0,0,100,0,0,100,0,100,50,50,0,0,0,0,0,0,0,0,1,429,0,0,0,34
22996.0,0,0,0,62,0,0,0,0,100,0,0,100,0,100,50,50,0,0,0,0,0,0,0,0,1,429,0,0,0,34
23026.0,0,0,0,62,0,0,0,0,100,0,0,100,0,100,50,50,0,0,0,0,0,0,0,0,1,429,0,0,0,34
23056.0,0,0,0,0,0,0,0,0,50,50,50,50,50,50,50,50,16,41,0,0,68,0,1,0,0,18,0,0,0,28
23086.0,0,0,0,0,0,0,0,0,50,50,50,50,50,50,50,50,16,41,0,0,68,0,1,0,0,18,0,0,0,28
23116.0,0,0,0,0,0,0,0,0,50,50,50,50,50,50,50,50,16,41,0,0,108,0,1,0,0,18,0,0,1,45
23146.0,0,0,0,0,0,0,0,0,50,50,50,50,50,50,50,50,0,62,0,0,57,0,0,0,0,16,0,1,0,62
23176.0,0,0,0,0,0,0,0,0,50,50,50,50,50,50,50,50,0,62,0,0,113,0,0,0,0,16,0,0,0,83
23206.0,0,0,0,0,0,0,0,0,50,50,50,50,50,50,50,50,0,47,0,0,113,0,0,0,0,19,0,0,0,84
23236.0,0,0,0,0,0,0,0,14,0,100,0,100,50,50,0,100,0,47,0,0,136,0,0,0,0,19,0,0,0,193
23266.0,0,0,0,0,0,0,0,43,0,100,0,100,50,50,0,100,0,47,0,0,170,0,0,0,0,19,0,0,0,343
23296.0,0,0,0,0,0,0,0,81,0,100,0,100,50,50,0,100,0,47,0,0,104,0,0,0,0,19,0,0,0,537
23326.0,0,0,0,0,0,0,0,81,0,100,0,100,50,50,0,100,0,47,0,0,104,0,0,0,0,19,0,0,0,537
23356.0,0,0,0,0,0,0,0,100,0,100,0,100,50,50,0,100,0,47,0,14,58,0,0,0,0,19,0,1,0,652
23386.0,0,0,0,0,0,0,0,100,0,100,0,100,50,50,0,100,0,47,0,14,58,0,0,0,0,19,0,1,0,652
23416.0,0,0,0,0,0,0,0,100,0,100,0,100,50,50,0,100,0,57,0,14,58,0,4,0,0,15,0,1,0,652
23446.0,0,0,0,0,0,0,0,100,0,100,0,100,50,50,0,100,0,55,0,14,58,0,0,0,0,16,0,1,0,652
23476.0,0,0,0,0,0,0,0,82,0,100,0,100,50,50,0,100,0,38,0,9,106,0,0,0,0,17,0,0,0,544
23506.0,0,0,0,0,0,0,0,58,0,100,0,100,50,50,0,100,0,38,0,0,170,0,0,0,0,17,0,0,0,420
23536.0,0,0,0,0,0,0,0,27,0,100,0,100,50,50,0,100,0,50,0,0,90,0,2,0,0,18,0,0,0,263
23566.0,0,0,0,0,0,0,0,27,0,100,0,100,50,50,0,100,0,50,0,0,90,0,2,0,0,18,0,0,0,263
23595.0,0,0,0,0,0,0,0,27,0,100,0,100,50,50,0,100,0,18,0,0,90,0,0,0,0,15,0,0,0,263
23626.0,0,0,0,0,0,0,0,0,50,50,50,50,50,50,50,50,0,18,0,0,102,0,0,0,0,15,0,0,0,58
23656.0,0,0,0,0,0,0,0,0,50,50,50,50,50,50,50,50,9,13,0,0,79,0,1,0,0,14,0,0,0,36
23686.0,0,0,0,0,0,0,0,0,50,50,50,50,50,50,50,50,5,20,0,0,79,0,0,0,0,16,0,0,0,35
23716.0,0,0,0,0,0,0,0,0,50,50,50,50,50,50,50,50,5,20,0,0,79,0,0,0,0,16,0,0,0,35
23745.0,0,0,0,0,0,0,0,0,50,50,50,50,50,50,50,50,0,10,0,0,49,0,0,0,0,18,0,0,1,10
23776.0,0,0,0,0,0,0,0,0,50,50,50,50,50,50,50,50,0,8,0,0,56,0,0,0,0,21,0,0,0,9
23806.0,0,0,0,0,0,0,0,0,50,50,50,50,50,50,50,50,0,12,0,0,56,0,0,0,0,26,0,0,0,9
23836.0,0,0,0,0,0,0,0,0,50,50,50,50,50,50,50,50,0,12,0,0,56,0,0,0,0,26,0,0,0,9
23866.0,0,0,0,0,0,0,0,0,50,50,50,50,50,50,50,50,32,0,0,0,45,0,0,0,1,87,1,0,0,5
23896.0,0,0,0,20,0,0,0,0,100,0,0,100,0,100,50,50,0,0,0,0,53,0,0,0,0,220,0,0,0,7
23926.0,0,0,0,60,0,0,0,0,100,0,0,100,0,100,50,50,0,0,0,0,53,0,0,0,0,420,0,0,0,7
23955.0,0,0,0,61,0,0,0,0,100,0,0,100,0,100,50,50,0,0,0,0,53,0,0,0,0,426,0,0,0,7
23986.0,0,0,0,77,0,0,0,0,100,0,0,100,0,100,50,50,0,93,0,0,24,0,0,0,0,505,0,0,0,10
24016.0,0,0,0,84,0,0,0,0,100,0,0,100,0,100,50,50,0,38,0,0,8,0,0,0,0,540,0,0,0,7
24046.0,0,0,0,84,0,0,0,0,100,0,0,100,0,100,50,50,0,38,0,0,0,0,0,0,0,540,0,0,0,10
24076.0,0,0,0,91,0,0,0,0,100,0,0,100,0,100,50,50,0,35,0,0,0,0,5,1,0,571,0,0,0,11
24106.0,0,0,0,87,0,0,0,0,100,0,0,100,0,100,50,50,0,39,0,0,44,0,1,0,0,553,0,0,0,14
24136.0,0,0,0,87,0,0,0,0,100,0,0,100,0,100,50,50,0,39,0,0,44,0,1,0,0,553,0,0,0,14
24166.0,0,0,0,77,0,0,0,0,100,0,0,100,0,100,50,50,0,21,0,0,44,0,0,0,1,502,0,0,0,14
24196.0,0,0,0,64,0,0,0,0,100,0,0,100,0,100,50,50,0,18,0,0,74,0,0,0,0,441,0,0,0,17
24226.0,0,0,0,48,0,0,0,0,100,0,0,100,0,100,50,50,0,66,0,0,63,0,0,0,0,362,0,1,1,19
24256.0,0,0,0,13,0,0,0,0,100,0,0,100,0,100,50,50,111,118,0,0,61,0,2,0,0,189,0,0,0,23
24286.0,0,0,0,3,0,0,0,0,66,34,0,100,0,100,50,50,129,108,0,0,63,0,0,0,0,138,0,0,0,23
24316.0,0,0,0,0,0,0,0,0,50,50,50,50,50,50,50,50,31,52,0,0,63,0,0,0,0,68,0,0,0,23
24346.0,0,0,0,0,0,0,0,0,50,50,50,50,50,50,50,50,0,16,0,0,63,0,1,1,0,49,0,0,0,37
24376.0,0,0,0,0,0,0,0,0,50,50,50,50,50,50,50,50,0,16,0,0,121,0,1,1,0,49,0,0,0,47
24406.0,0,0,0,0,0,0,0,0,50,50,50,50,50,50,50,50,0,0,0,0,121,0,0,0,0,25,0,0,0,47
24436.0,0,0,0,0,0,0,0,0,50,50,50,50,50,50,50,50,0,0,0,0,121,0,0,0,0,25,0,0,0,47
24466.0,0,0,0,0,0,0,0,0,50,50,50,50,50,50,50,50,2,0,0,0,108,0,0,1,0,21,0,0,0,67
24496.0,0,0,0,0,0,0,0,0,50,50,50,50,50,50,50,50,2,0,0,0,108,0,0,1,0,21,0,0,0,67
24526.0,0,0,0,0,0,0,0,0,50,50,50,50,50,50,50,50,0,0,0,0,93,0,0,0,0,19,1,0,0,108
24556.0,0,0,0,0,0,0,0,0,50,50,50,50,50,50,50,50,0,0,0,0,93,0,0,0,0,19,1,0,0,108
24586.0,0,0,0,0,0,0,0,0,50,50,50,50,50,50,50,50,0,0,0,0,93,0,0,0,0,19,1,0,0,108
24616.0,0,0,0,0,0,0,0,12,0,100,0,100,50,50,0,100,0,0,0,0,144,0,0,0,0,19,0,0,0,186
24646.0,0,0,0,0,0,0,0,21,0,100,0,100,50,50,0,100,0,0,0,0,124,0,0,0,0,19,0,0,0,231
24676.0,0,0,0,0,0,0,0,21,0,100,0,100,50,50,0,100,0,0,0,0,124,0,2,0,0,16,0,0,0,231
24706.0,0,0,0,0,0,0,0,76,0,100,0,100,50,50,0,100,0,0,0,13,75,0,2,0,0,16,0,0,0,509
24736.0,0,0,0,0,0,0,0,76,0,100,0,100,50,50,0,100,0,0,0,13,75,0,0,0,0,17,0,0,0,509
24766.0,0,0,0,0,0,0,0,91,0,100,0,100,50,50,0,100,0,0,0,0,89,0,0,0,0,16,0,0,0,590
24796.0,0,0,0,0,0,0,0,97,0,100,0,100,50,50,0,100,0,0,0,0,65,0,0,0,0,16,1,0,0,619
24826.0,0,0,0,0,0,0,0,96,0,100,0,100,50,50,0,100,0,3,0,71,152,0,1,0,1,17,0,0,0,615
24856.0,0,0,0,0,0,0,0,79,0,100,0,100,50,50,0,100,4,58,0,0,387,0,1,0,0,18,0,0,0,524
24886.0,0,0,0,0,0,0,0,65,0,100,0,100,50,50,0,100,4,58,0,0,445,0,1,0,0,18,0,0,0,454
24916.0,0,0,0,0,0,0,0,8,33,67,0,100,50,50,0,100,71,130,0,0,465,0,0,0,0,11,0,0,0,162
24946.0,0,0,0,0,0,0,0,0,50,50,50,50,50,50,50,50,151,82,0,74,0,0,1,0,0,12,0,0,0,55
24976.0,0,0,0,0,0,0,0,0,50,50,50,50,50,50,50,50,61,84,0,310,196,63,0,0,0,1,0,0,0,20
25006.0,0,0,0,0,0,0,0,0,50,50,50,50,50,50,50,50,0,0,0,0,0,16,1,0,0,0,0,0,0,7
25036.0,0,0,0,0,0,0,0,0,50,50,50,50,50,50,50,50,0,0,0,0,0,16,1,0,0,0,0,0,0,7
25066.0,0,0,0,0,0,0,0,0,50,50,50,50,50,50,50,50,0,0,0,0,0,16,1,0,0,0,0,0,0,7
25096.0,0,0,0,0,0,0,0,0,50,50,50,50,50,50,50,50,0,0,0,0,0,16,1,0,0,0,0,0,0,7
25126.0,0,0,0,0,0,0,0,0,50,50,50,50,50,50,50,50,0,0,0,0,0,16,1,0,0,0,0,0,0,7
25156.0,0,0,0,0,0,0,0,0,50,50,50,50,50,50,50,50,0,0,0,0,0,0,1,0,0,0,0,0,0,0
25186.0,0,0,0,0,0,0,0,0,50,50,50,50,50,50,50,50,271,0,0,0,0,0,0,0,0,0,0,0,0,0
25216.0,0,0,0,0,0,0,0,0,50,50,50,50,50,50,50,50,271,0,0,148,44,0,0,0,0,0,0,2,0,0
25246.0,0,0,0,0,0,0,0,0,50,50,50,50,50,50,50,50,0,203,0,0,96,0,1,0,0,0,0,0,0,0
25276.0,0,0,0,0,0,0,0,0,50,50,50,50,50,50,50,50,0,203,0,0,0,0,1,0,0,0,0,0,1,0
25306.0,0,0,0,0,0,0,0,0,50,50,50,50,50,50,50,50,0,203,0,0,0,0,1,0,0,0,0,0,1,0
25335.0,0,0,0,0,0,0,0,0,50,50,50,50,50,50,50,50,50,0,0,0,0,0,0,0,0,0,0,0,0,0
25366.0,0,0,0,0,0,0,0,0,50,50,50,50,50,50,50,50,50,0,0,0,0,0,0,0,0,0,0,0,0,0
25396.0,0,0,0,0,0,0,0,0,50,50,50,50,50,50,50,50,50,0,0,0,0,0,0,0,0,0,0,0,0,0
25426.0,0,0,0,0,0,0,0,0,50,50,50,50,50,50,50,50,50,0,0,0,0,0,0,0,0,0,0,0,0,0
25456.0,0,0,0,0,0,0,0,0,50,50,50,50,50,50,50,50,13,0,0,0,0,0,0,0,0,1,0,0,0,0
25486.0,0,0,0,0,0,0,0,0,50,50,50,50,50,50,50,50,13,0,0,0,0,0,0,0,0,1,0,0,0,0
25516.0,0,0,0,0,0,0,0,0,50,50,50,50,50,50,50,50,122,0,0,0,0,0,1,0,0,0,0,0,0,0
25546.0,0,0,0,0,0,0,0,0,50,50,50,50,50,50,50,50,122,0,0,0,0,0,1,0,0,0,0,0,0,0
25576.0,0,0,0,0,0,0,0,0,50,50,50,50,50,50,50,50,0,0,0,42,0,0,0,0,0,0,0,0,0,0
25606.0,0,0,0,0,0,0,0,0,50,50,50,50,50,50,50,50,116,0,0,165,0,0,0,0,0,0,0,0,0,0
25636.0,0,0,0,0,0,0,0,0,50,50,50,50,50,50,50,50,116,0,0,165,0,0,0,0,0,0,0,0,0,0
25666.0,0,0,0,0,0,0,0,0,50,50,50,50,50,50,50,50,120,0,0,165,0,0,2,0,0,1,0,0,0,0
25696.0,0,0,0,0,0,0,0,0,50,50,50,50,50,50,50,50,120,0,0,165,0,0,2,0,0,1,0,0,0,0
25726.0,0,0,0,0,0,0,0,0,50,50,50,50,50,50,50,50,224,0,0,279,0,0,0,0,0,0,0,0,0,0
25756.0,0,0,0,0,0,0,0,0,50,50,50,50,50,50,50,50,224,0,0,186,0,0,0,0,0,0,0,0,0,0
25786.0,0,0,0,0,0,0,0,0,50,50,50,50,50,50,50,50,224,0,0,186,0,0,0,0,0,0,0,0,0,0
25816.0,0,0,0,0,0,0,0,0,50,50,50,50,50,50,50,50,224,0,0,174,0,0,0,0,0,0,0,0,0,0
25846.0,0,0,0,0,0,0,0,0,50,50,50,50,50,50,50,50,71,0,0,116,0,0,0,0,0,0,1,0,0,1
25876.0,0,0,0,0,0,0,0,0,50,50,50,50,50,50,50,50,31,0,0,65,0,0,0,0,2,0,2,0,0,0
25906.0,0,0,0,0,0,0,0,0,50,50,50,50,50,50,50,50,42,0,0,65,0,0,2,0,1,0,2,0,0,0
25936.0,0,0,0,0,0,0,0,0,50,50,50,50,50,50,50,50,87,0,0,107,0,0,3,2,0,0,11,1,0,0
25966.0,0,0,0,0,0,0,0,0,50,50,50,50,50,50,50,50,0,0,0,107,0,0,12,1,0,0,11,1,0,0
25996.0,0,0,0,0,0,0,0,0,50,50,50,50,50,50,50,50,54,0,0,107,0,0,41,0,0,0,11,1,0,0
26026.0,0,0,0,0,0,0,0,0,50,50,50,50,50,50,50,50,54,0,0,0,0,0,41,0,0,0,34,0,0,0
26056.0,0,0,0,0,0,0,0,0,50,50,50,50,50,50,50,50,85,0,0,0,0,0,89,0,0,0,34,0,0,0
26086.0,0,0,0,0,0,0,0,0,50,50,50,50,50,50,50,50,85,0,0,74,0,0,89,0,0,0,33,0,0,1
26116.0,0,0,0,0,0,0,0,0,50,50,50,50,50,50,50,50,85,0,0,74,0,0,89,0,0,0,33,0,0,1
26146.0,11,0,0,0,0,0,0,0,100,0,100,0,100,0,50,50,19,0,0,27,0,0,219,0,0,0,11,0,0,0
26176.0,11,0,0,0,0,0,0,0,100,0,100,0,100,0,50,50,19,0,0,126,0,0,219,0,0,0,4,0,0,0
26206.0,14,0,0,0,0,0,0,0,100,0,100,0,100,0,50,50,5,0,0,0,0,0,241,0,0,0,2,0,0,1
26236.0,14,0,0,0,0,0,0,0,100,0,100,0,100,0,50,50,22,0,0,0,0,0,238,1,0,0,4,0,0,0
26266.0,14,0,0,0,0,0,0,0,100,0,100,0,100,0,50,50,22,0,0,43,0,0,238,1,0,0,11,0,0,0
26296.0,14,0,0,0,0,0,0,0,100,0,100,0,100,0,50,50,22,0,0,12,0,0,238,1,0,0,42,2,0,0
26326.0,12,0,0,0,0,0,0,0,100,0,100,0,100,0,50,50,0,0,0,64,0,0,228,0,0,0,64,0,0,0
26356.0,3,0,0,0,0,0,0,0,66,34,100,0,100,0,50,50,13,0,0,58,0,0,170,0,0,0,100,0,3,0
26386.0,3,0,0,0,0,0,0,0,66,34,100,0,100,0,50,50,13,0,0,24,0,0,170,0,0,0,105,0,0,0
26416.0,0,0,0,0,0,0,0,0,50,50,50,50,50,50,50,50,0,8,0,46,0,0,3,1,0,0,123,0,0,0
26446.0,0,0,0,0,0,0,0,0,50,50,50,50,50,50,50,50,0,8,0,41,0,0,1,1,0,0,142,0,0,0
26476.0,0,0,0,0,0,0,0,0,50,50,50,50,50,50,50,50,0,0,0,41,0,0,1,0,0,0,142,0,0,0
26505.0,0,0,0,0,7,0,0,0,33,67,100,0,50,50,100,0,0,0,0,38,0,0,1,0,0,0,201,0,0,0
26536.0,0,0,0,0,7,0,0,0,33,67,100,0,50,50,100,0,50,0,0,38,0,0,0,0,0,0,201,0,0,0
26566.0,0,0,0,0,14,0,0,0,0,100,100,0,50,50,100,0,50,0,0,0,0,0,0,0,0,0,243,0,0,0
26596.0,0,0,0,0,14,0,0,0,0,100,100,0,50,50,100,0,25,0,0,0,0,0,2,0,0,0,245,0,0,0
26626.0,0,0,0,0,14,0,0,0,0,100,100,0,50,50,100,0,25,0,0,0,0,0,2,0,0,0,245,0,0,0
26656.0,0,0,0,0,14,0,0,0,0,100,100,0,50,50,100,0,25,0,0,0,0,0,2,0,0,0,245,0,0,0
26686.0,0,0,0,0,14,0,0,0,0,100,100,0,50,50,100,0,0,0,0,0,0,0,0,0,0,0,245,0,0,0
26716.0,0,0,0,0,37,0,0,0,0,100,100,0,50,50,100,0,0,0,0,72,0,0,0,0,0,0,389,0,0,0
26746.0,0,0,0,0,37,0,0,0,0,100,100,0,50,50,100,0,6,0,0,72,0,0,0,0,0,0,389,0,0,0
26776.0,0,0,0,0,37,0,0,0,0,100,100,0,50,50,100,0,6,0,0,72,0,0,0,0,0,0,389,0,0,0
26806.0,0,0,0,0,37,0,0,0,0,100,100,0,50,50,100,0,6,0,0,72,0,0,0,0,0,0,389,0,0,0
26835.0,0,0,0,0,44,0,0,0,0,100,100,0,50,50,100,0,9,0,0,0,0,0,0,0,0,1,438,0,1,0
26866.0,0,0,0,0,44,0,0,0,0,100,100,0,50,50,100,0,0,0,0,0,0,0,1,0,0,0,438,0,1,0
26896.0,0,0,0,0,44,0,0,0,0,100,100,0,50,50,100,0,0,0,0,0,0,0,0,0,1,0,438,0,1,0
26926.0,0,0,0,0,44,0,0,0,0,100,100,0,50,50,100,0,0,0,0,0,0,0,0,0,0,0,438,0,1,0
26956.0,0,0,0,0,44,0,0,0,0,100,100,0,50,50,100,0,0,0,0,0,0,0,0,0,0,0,438,0,1,0
26986.0,0,0,0,0,41,0,0,0,0,100,100,0,50,50,100,0,0,0,0,0,0,0,0,0,0,1,417,0,0,0
27016.0,0,0,0,0,41,0,0,0,0,100,100,0,50,50,100,0,0,0,0,0,0,0,0,0,0,0,417,0,0,0
27046.0,0,0,0,0,0,0,0,0,50,50,50,50,50,50,50,50,5,0,0,242,0,0,0,0,0,0,86,0,0,1
27076.0,0,0,0,0,0,0,0,0,50,50,50,50,50,50,50,50,0,0,0,242,0,0,0,0,0,0,64,0,0,1
27106.0,0,0,0,0,0,0,0,0,50,50,50,50,50,50,50,50,0,0,0,0,0,0,0,0,0,0,27,0,0,0
27136.0,0,0,0,0,0,0,0,0,50,50,50,50,50,50,50,50,3,0,0,0,0,0,0,0,0,2,18,0,0,0
27166.0,0,0,0,0,0,0,0,0,50,50,50,50,50,50,50,50,3,0,0,41,0,0,0,0,0,2,8,0,0,0
27196.0,0,0,0,0,0,0,0,0,50,50,50,50,50,50,50,50,3,0,0,41,0,0,0,0,0,2,8,0,0,0
27226.0,0,0,0,0,0,0,0,0,50,50,50,50,50,50,50,50,6,0,0,0,0,0,6,0,0,0,0,0,0,0
27256.0,0,0,0,0,0,0,0,0,50,50,50,50,50,50,50,50,6,0,0,0,0,0,6,0,0,0,0,0,0,0
27286.0,0,0,0,0,0,0,0,0,50,50,50,50,50,50,50,50,23,0,0,43,0,0,29,0,0,0,3,0,0,0
27316.0,0,0,0,0,0,0,0,0,50,50,50,50,50,50,50,50,23,0,0,42,0,0,29,0,0,0,0,0,0,0
27346.0,0,0,0,0,0,0,0,0,50,50,50,50,50,50,50,50,23,0,0,42,0,0,29,0,0,0,0,0,0,0
27376.0,0,0,0,0,0,0,0,0,50,50,50,50,50,50,50,50,47,0,0,0,0,0,143,0,0,0,0,0,1,0
27406.0,0,0,0,0,0,0,0,0,50,50,50,50,50,50,50,50,47,0,0,0,0,0,143,0,0,0,0,0,1,0
27436.0,6,0,0,0,0,0,0,0,66,34,100,0,100,0,50,50,27,0,0,0,0,0,188,0,0,0,0,0,1,0
27466.0,6,0,0,0,0,0,0,0,66,34,100,0,100,0,50,50,27,0,0,0,0,0,188,0,0,0,0,0,1,0
27496.0,11,0,0,0,0,0,0,0,100,0,100,0,100,0,50,50,0,0,0,0,0,0,221,0,0,0,1,0,0,0
27526.0,13,0,0,0,0,0,0,0,100,0,100,0,100,0,50,50,0,0,0,0,0,0,234,0,0,0,1,0,0,0
27556.0,15,0,0,0,0,0,0,0,100,0,100,0,100,0,50,50,22,0,0,0,0,0,243,0,0,0,0,0,0,0
27586.0,16,0,0,0,0,0,0,0,100,0,100,0,100,0,50,50,19,0,0,0,0,0,253,1,0,0,0,0,0,0
27616.0,16,0,0,0,0,0,0,0,100,0,100,0,100,0,50,50,19,0,0,17,0,0,253,1,0,0,3,0,0,0
27646.0,16,0,0,0,0,0,0,0,100,0,100,0,100,0,50,50,19,0,0,17,0,0,253,1,0,0,3,0,0,0
27676.0,15,0,0,0,0,0,0,0,100,0,100,0,100,0,50,50,27,0,0,12,0,0,248,0,0,0,7,0,0,1
27706.0,9,0,0,0,0,0,0,0,66,34,100,0,100,0,50,50,9,0,0,12,0,0,209,0,0,0,7,0,0,1
27736.0,4,0,0,0,0,0,0,0,66,34,100,0,100,0,50,50,0,0,0,59,0,0,177,0,0,0,10,0,0,0
27766.0,0,0,0,0,0,0,0,0,50,50,50,50,50,50,50,50,0,0,0,26,0,0,131,0,0,0,23,0,0,0
27796.0,0,0,0,0,0,0,0,0,50,50,50,50,50,50,50,50,0,0,0,26,0,0,131,0,0,0,23,0,0,0
27826.0,0,0,0,0,0,0,0,0,50,50,50,50,50,50,50,50,0,0,0,0,0,0,0,0,0,1,64,0,0,0
27856.0,0,0,0,0,0,0,0,0,50,50,50,50,50,50,50,50,0,0,0,60,0,0,3,0,0,1,108,0,0,0
27886.0,0,0,0,0,0,0,0,0,50,50,50,50,50,50,50,50,0,0,0,60,0,0,0,0,0,0,108,0,0,0
27916.0,0,0,0,0,0,0,0,0,33,67,100,0,50,50,100,0,0,0,0,135,0,0,0,0,0,0,154,0,0,0
27946.0,0,0,0,0,0,0,0,0,33,67,100,0,50,50,100,0,0,0,0,135,0,0,0,0,0,1,154,0,0,0
27976.0,0,0,0,0,16,0,0,0,0,100,100,0,50,50,100,0,0,0,0,50,0,0,1,0,0,0,257,0,0,1
28006.0,0,0,0,0,21,0,0,0,0,100,100,0,50,50,100,0,3,0,0,135,0,0,2,0,0,0,290,0,0,0
28036.0,0,0,0,0,21,0,0,0,0,100,100,0,50,50,100,0,2,0,0,135,0,0,1,0,0,0,290,0,0,0
28066.0,0,0,0,0,31,0,0,0,0,100,100,0,50,50,100,0,2,0,0,114,0,0,1,0,0,0,353,0,0,0
28096.0,0,0,0,0,31,0,0,0,0,100,100,0,50,50,100,0,0,0,0,114,0,0,0,0,0,0,353,0,0,0
28126.0,0,0,0,0,37,0,0,0,0,100,100,0,50,50,100,0,0,0,0,0,0,0,0,0,0,0,388,0,0,0
28156.0,0,0,0,0,37,0,0,0,0,100,100,0,50,50,100,0,18,0,0,0,0,0,0,0,1,0,388,0,0,0
28186.0,0,0,0,0,39,0,0,0,0,100,100,0,50,50,100,0,27,0,0,14,0,0,0,0,0,0,402,0,0,0
28216.0,0,0,0,0,39,0,0,0,0,100,100,0,50,50,100,0,27,0,0,14,0,0,0,0,0,0,402,0,0,0
28246.0,0,0,0,0,32,0,0,0,0,100,100,0,50,50,100,0,20,0,0,1,0,0,0,0,0,0,357,0,0,0
28276.0,0,0,0,0,25,0,0,0,0,100,100,0,50,50,100,0,20,0,0,184,64,0,0,0,0,0,314,0,0,0
28306.0,0,0,0,0,25,0,0,0,0,100,100,0,50,50,100,0,19,0,0,184,64,0,0,0,0,1,314,0,0,0
28336.0,0,0,0,0,0,0,0,0,50,50,50,50,50,50,50,50,12,0,0,137,0,0,0,0,0,0,76,0,0,0
28366.0,0,0,0,0,0,0,0,0,50,50,50,50,50,50,50,50,0,0,0,143,0,0,0,0,0,0,37,0,0,0
28396.0,0,0,0,0,0,0,0,0,50,50,50,50,50,50,50,50,77,0,0,119,89,0,0,0,0,0,0,0,0,0
28426.0,0,0,0,0,0,0,0,0,50,50,50,50,50,50,50,50,77,0,0,362,0,0,0,0,0,0,2,0,0,0
28456.0,0,0,0,0,0,0,0,0,50,50,50,50,50,50,50,50,15,0,0,362,0,0,0,0,0,0,2,0,0,0
28486.0,0,0,0,0,0,0,0,0,50,50,50,50,50,50,50,50,0,0,0,362,0,0,1,0,0,0,2,0,0,0
28516.0,0,0,0,0,0,0,0,0,50,50,50,50,50,50,50,50,0,0,0,0,0,0,1,0,0,0,0,0,0,0
28546.0,0,0,0,0,0,0,0,0,50,50,50,50,50,50,50,50,0,0,0,0,0,0,0,1,0,0,0,0,0,0
28576.0,0,0,0,0,0,0,0,0,50,50,50,50,50,50,50,50,0,0,0,0,0,0,0,0,0,0,0,0,0,0
28606.0,0,0,0,0,0,0,0,0,50,50,50,50,50,50,50,50,0,0,0,116,0,0,0,0,0,0,0,0,0,0
28636.0,0,0,0,0,0,0,0,0,50,50,50,50,50,50,50,50,0,0,0,95,0,0,0,0,0,0,0,0,0,0
28666.0,0,0,0,0,0,0,0,0,50,50,50,50,50,50,50,50,0,0,0,75,3,0,0,0,0,0,0,0,0,0
28696.0,0,0,0,0,0,0,0,0,50,50,50,50,50,50,50,50,0,0,0,69,28,0,0,0,0,0,0,0,0,0
28726.0,0,0,0,0,0,0,0,0,50,50,50,50,50,50,50,50,0,0,0,69,28,0,0,0,0,0,0,0,0,0
28756.0,0,0,0,0,0,0,0,0,50,50,50,50,50,50,50,50,0,0,0,69,28,0,0,0,0,0,0,0,0,0
28786.0,0,0,0,0,0,0,0,0,50,50,50,50,50,50,50,50,0,0,0,69,28,0,0,0,0,0,0,0,0,0
28816.0,0,0,0,0,0,0,0,0,50,50,50,50,50,50,50,50,0,0,0,147,4,0,0,0,0,0,0,0,0,0
28846.0,0,0,0,0,0,0,0,0,50,50,50,50,50,50,50,50,0,0,0,116,0,0,1,0,0,0,0,0,0,0
28876.0,0,0,0,0,0,0,0,0,50,50,50,50,50,50,50,50,0,0,0,116,0,0,0,0,0,0,0,0,0,0
28906.0,0,0,0,0,0,0,0,0,50,50,50,50,50,50,50,50,0,0,0,116,0,0,0,0,0,0,0,0,0,0
28936.0,0,0,0,0,0,0,0,0,50,50,50,50,50,50,50,50,0,0,0,116,0,0,2,0,0,0,0,0,0,0
28966.0,0,0,0,0,0,0,0,0,50,50,50,50,50,50,50,50,0,0,0,116,0,0,2,0,0,0,0,0,0,0
28996.0,0,0,0,0,0,0,0,0,50,50,50,50,50,50,50,50,0,0,0,116,0,0,2,0,0,0,0,0,0,0
29026.0,0,0,0,0,0,0,0,0,50,50,50,50,50,50,50,50,0,0,0,115,0,0,2,0,0,0,0,0,0,0
29056.0,0,0,0,0,0,0,0,0,50,50,50,50,50,50,50,50,52,0,0,107,5,0,0,0,0,0,0,0,0,1
29086.0,0,0,0,0,0,0,0,0,50,50,50,50,50,50,50,50,53,0,0,98,0,0,1,0,1,0,0,0,1,0
29116.0,0,0,0,0,0,0,0,0,50,50,50,50,50,50,50,50,53,0,0,89,0,0,1,0,1,0,0,0,0,0
29146.0,0,0,0,0,0,0,0,0,50,50,50,50,50,50,50,50,11,0,0,89,12,0,0,0,0,0,0,0,0,0
29176.0,0,0,0,0,0,0,0,0,50,50,50,50,50,50,50,50,11,0,0,97,3,0,0,0,0,0,0,1,0,0
29206.0,0,0,0,0,0,0,0,0,50,50,50,50,50,50,50,50,11,0,0,121,0,0,0,0,0,0,0,0,0,0
29236.0,0,0,0,0,0,0,0,0,50,50,50,50,50,50,50,50,74,0,0,102,0,0,0,0,0,0,0,0,0,0
29266.0,0,0,0,0,0,0,0,0,50,50,50,50,50,50,50,50,0,0,0,102,0,0,0,0,0,0,0,0,0,0
29296.0,0,0,0,0,0,0,0,0,50,50,50,50,50,50,50,50,0,0,0,90,0,0,0,0,0,0,0,0,0,0
29326.0,0,0,0,0,0,0,0,0,50,50,50,50,50,50,50,50,0,0,0,78,0,0,0,0,0,0,0,0,1,0
29356.0,0,0,0,0,0,0,0,0,50,50,50,50,50,50,50,50,0,0,0,99,0,0,0,0,0,0,0,1,0,0
29386.0,0,0,0,0,0,0,0,0,50,50,50,50,50,50,50,50,0,0,0,104,0,0,0,8,0,1,0,0,1,0
29415.0,0,0,0,0,0,0,0,0,50,50,50,50,50,50,50,50,0,0,0,101,0,0,0,8,0,1,0,0,0,0
29446.0,0,0,0,0,0,0,0,0,50,50,50,50,50,50,50,50,0,3,0,88,0,0,0,9,0,0,0,0,0,0
29476.0,0,0,0,0,0,0,0,0,50,50,50,50,50,50,50,50,0,0,0,88,0,0,1,8,1,0,0,0,0,0
29506.0,0,0,0,0,0,0,0,0,50,50,50,50,50,50,50,50,0,0,0,99,0,0,1,8,1,0,0,0,0,0
29536.0,0,0,0,0,0,0,0,0,50,50,50,50,50,50,50,50,0,0,0,105,0,0,2,9,0,0,0,0,0,0
29566.0,0,0,0,0,0,0,0,0,50,50,50,50,50,50,50,50,0,0,0,104,10,0,1,9,0,0,0,0,0,0
29596.0,0,0,0,0,0,0,0,0,50,50,50,50,50,50,50,50,0,0,0,104,10,0,0,5,0,0,0,0,0,0
29626.0,0,0,0,0,0,0,0,0,50,50,50,50,50,50,50,50,0,0,0,119,0,0,0,6,0,0,0,2,0,0
29656.0,0,0,0,0,0,0,0,0,50,50,50,50,50,50,50,50,0,0,0,118,0,0,0,4,0,0,0,2,0,0
29686.0,0,0,0,0,0,0,0,0,50,50,50,50,50,50,50,50,0,0,0,126,0,0,0,0,1,0,0,0,0,0
29716.0,0,0,0,0,0,0,0,0,50,50,50,50,50,50,50,50,0,0,0,126,0,0,0,2,0,0,0,0,0,0
29746.0,0,0,0,0,0,0,0,0,50,50,50,50,50,50,50,50,0,0,0,124,70,0,0,0,0,0,0,0,0,0
29776.0,0,0,0,0,0,0,0,0,50,50,50,50,50,50,50,50,0,0,0,124,70,0,0,0,0,0,0,0,0,0
29806.0,0,0,0,0,0,0,0,0,50,50,50,50,50,50,50,50,0,0,0,124,70,0,0,0,0,0,0,0,0,0
29836.0,0,0,0,0,0,0,0,0,50,50,50,50,50,50,50,50,0,0,0,127,0,0,0,0,0,0,0,0,0,0
29866.0,0,0,0,0,0,0,0,0,50,50,50,50,50,50,50,50,0,0,0,120,23,0,0,0,0,0,0,0,0,0
29896.0,0,0,0,0,0,0,0,0,50,50,50,50,50,50,50,50,0,0,0,148,0,0,0,0,0,0,0,76,0,0
29927.0,0,0,0,0,0,0,0,0,50,50,50,50,50,50,50,50,0,0,0,148,0,0,0,0,0,0,0,81,0,0
29956.0,0,0,0,0,0,0,0,0,50,50,50,50,50,50,50,50,0,0,0,148,0,0,0,0,0,0,0,82,0,0
29986.0,0,0,0,0,0,0,0,0,50,50,50,50,50,50,50,50,0,0,0,148,0,0,0,0,0,0,0,82,0,0
30016.0,0,0,0,0,0,50,0,0,0,100,100,0,50,50,100,0,0,0,0,244,103,0,0,0,0,0,0,473,0,0
30047.0,0,0,0,0,0,50,0,0,0,100,100,0,50,50,100,0,0,0,0,244,103,0,0,0,0,0,0,473,0,0
30077.0,0,0,0,0,0,50,0,0,0,100,100,0,50,50,100,0,0,0,0,244,103,0,0,0,0,0,0,473,0,0
30107.0,0,0,0,0,0,50,0,0,0,100,100,0,50,50,100,0,0,0,0,244,103,0,2,0,0,0,0,473,0,0
30137.0,0,0,0,0,0,50,0,0,0,100,100,0,50,50,100,0,0,0,0,244,103,0,1,1,0,0,0,473,0,0
30166.0,0,0,0,0,0,72,0,0,0,100,100,0,50,50,100,0,0,0,0,142,101,0,1,0,0,1,0,616,0,0
30197.0,0,0,0,0,0,74,0,0,0,100,100,0,50,50,100,0,0,0,0,142,101,0,1,0,1,0,0,625,0,0
30226.0,0,0,0,0,0,62,0,0,0,100,100,0,50,50,100,0,0,0,0,141,75,0,0,0,0,0,0,551,0,0
30257.0,0,0,0,0,0,61,0,0,0,100,100,0,50,50,100,0,0,0,0,141,75,0,1,1,0,0,0,546,0,0
30287.0,0,0,0,0,0,61,0,0,0,100,100,0,50,50,100,0,0,0,0,141,75,0,0,0,0,0,0,545,0,0
30316.0,0,0,0,0,0,61,0,0,0,100,100,0,50,50,100,0,0,0,0,141,75,0,0,0,0,0,0,545,0,0
30346.0,0,0,0,0,0,0,0,0,50,50,50,50,50,50,50,50,0,0,0,117,0,0,0,0,0,0,0,112,0,0
30377.0,0,0,0,0,0,0,0,0,50,50,50,50,50,50,50,50,0,0,0,299,112,0,0,0,0,0,0,0,0,0
30407.0,0,0,0,0,0,0,0,0,50,50,50,50,50,50,50,50,0,0,0,197,75,0,0,0,0,0,0,5,0,0
30437.0,0,0,0,0,0,0,0,0,50,50,50,50,50,50,50,50,0,0,0,171,27,0,0,0,0,0,0,0,0,0
30466.0,0,0,0,0,0,0,0,0,50,50,50,50,50,50,50,50,0,0,0,166,29,0,0,0,0,0,0,0,0,0
30497.0,0,0,0,0,0,0,0,0,50,50,50,50,50,50,50,50,43,0,0,164,43,0,0,11,0,2,0,0,0,0
30527.0,0,0,0,0,0,0,0,0,50,50,50,50,50,50,50,50,87,0,0,156,32,0,0,38,0,0,0,0,0,0
30557.0,0,0,0,0,0,0,0,0,50,50,50,50,50,50,50,50,87,0,0,162,29,0,0,38,0,0,0,0,0,0
30586.0,0,0,0,0,0,0,0,0,50,50,50,50,50,50,50,50,73,0,0,159,26,0,0,132,0,0,0,0,0,0
30616.0,0,0,0,0,0,0,0,0,50,50,50,50,50,50,50,50,73,0,0,159,26,0,0,132,0,0,0,0,0,0
30647.0,0,7,0,0,0,0,0,0,66,34,100,0,100,0,50,50,40,0,0,157,24,0,0,197,0,0,0,0,0,0
30676.0,0,17,0,0,0,0,0,0,66,34,100,0,100,0,50,50,78,0,0,155,31,0,0,255,0,0,0,0,0,0
30707.0,0,22,0,0,0,0,0,0,66,34,100,0,100,0,50,50,55,0,0,152,33,0,0,290,0,0,0,0,0,0
30736.0,0,25,0,0,0,0,0,0,66,34,100,0,100,0,50,50,0,0,0,149,24,0,0,305,0,0,0,0,0,0
30766.0,0,26,0,0,0,0,0,0,66,34,100,0,100,0,50,50,39,0,0,149,24,0,0,316,0,0,0,0,0,0
30797.0,0,31,0,0,0,0,0,0,100,0,100,0,100,0,50,50,21,0,0,147,26,0,0,344,0,0,0,0,0,0
30827.0,0,30,0,0,0,0,0,0,100,0,100,0,100,0,50,50,15,0,0,145,25,0,0,339,0,0,0,0,0,0
30857.0,0,25,0,0,0,0,0,0,66,34,100,0,100,0,50,50,0,0,0,143,23,0,0,309,0,0,0,0,0,0
30887.0,0,25,0,0,0,0,0,0,66,34,100,0,100,0,50,50,0,0,0,143,23,0,0,309,0,0,0,0,0,0
30916.0,0,25,0,0,0,0,0,0,66,34,100,0,100,0,50,50,0,0,0,143,23,0,0,309,0,0,0,0,0,0
30947.0,0,0,0,0,0,0,0,0,50,50,50,50,50,50,50,50,103,0,0,141,18,0,1,25,0,0,0,0,0,0
30976.0,0,0,0,0,0,0,0,0,50,50,50,50,50,50,50,50,103,0,0,148,26,0,1,6,0,0,0,0,0,0
31006.0,0,0,0,0,0,0,0,0,50,50,50,50,50,50,50,50,103,0,0,151,35,0,1,1,0,0,0,0,0,0
31037.0,0,0,0,0,0,0,0,0,50,50,50,50,50,50,50,50,103,0,0,151,35,0,1,0,0,0,0,0,0,0
31066.0,0,0,0,0,0,0,0,0,50,50,50,50,50,50,50,50,0,0,0,139,22,0,0,5,0,0,0,0,0,0
31097.0,0,0,0,0,0,0,0,0,50,50,50,50,50,50,50,50,0,0,0,139,22,0,0,5,0,0,0,0,0,0
31127.0,0,0,0,0,0,0,0,0,50,50,50,50,50,50,50,50,0,0,0,136,13,0,0,5,0,0,0,0,0,1
31157.0,0,0,0,0,0,0,0,0,50,50,50,50,50,50,50,50,0,0,0,167,63,0,0,5,0,0,0,0,0,0
31186.0,0,0,0,0,0,0,0,0,50,50,50,50,50,50,50,50,0,0,0,167,63,0,0,3,0,0,0,0,0,0
31216.0,0,0,0,0,0,0,0,0,50,50,50,50,50,50,50,50,0,0,0,179,0,0,0,2,0,0,0,13,0,0
31247.0,0,0,0,0,0,0,0,0,50,50,50,50,50,50,50,50,0,0,0,179,0,0,1,4,0,0,0,13,0,0
31277.0,0,0,0,0,0,34,0,0,0,100,100,0,50,50,100,0,0,0,0,189,23,0,0,9,0,0,0,371,0,1
31307.0,0,0,0,0,0,38,0,0,0,100,100,0,50,50,100,0,0,0,0,189,23,0,0,6,0,0,0,395,0,1
31337.0,0,0,0,0,0,44,0,0,0,100,100,0,50,50,100,0,0,0,0,174,60,0,0,5,0,0,0,434,0,0
31366.0,0,0,0,0,0,44,0,0,0,100,100,0,50,50,100,0,0,0,0,174,60,0,0,7,0,0,0,434,0,0
31397.0,0,0,0,0,0,73,0,0,0,100,100,0,50,50,100,0,0,0,0,163,74,0,0,10,0,0,0,617,0,0
31427.0,0,0,0,0,0,75,0,0,0,100,100,0,50,50,100,0,0,0,0,203,82,0,0,7,0,0,0,631,0,0
31456.0,0,0,0,0,0,75,0,0,0,100,100,0,50,50,100,0,0,0,0,203,82,0,0,6,0,0,0,631,0,0
31486.0,0,0,0,0,0,76,0,0,0,100,100,0,50,50,100,0,0,0,0,207,46,0,0,6,0,0,0,641,0,0
31517.0,0,0,0,0,0,76,0,0,0,100,100,0,50,50,100,0,0,0,0,207,46,0,0,8,0,0,0,641,0,0
31546.0,0,0,0,0,0,76,0,0,0,100,100,0,50,50,100,0,0,0,0,207,46,0,0,8,0,0,0,641,0,0
31577.0,0,0,0,0,0,0,0,0,50,50,50,50,50,50,50,50,0,0,0,206,15,0,0,17,0,0,0,120,0,0
31606.0,0,0,0,0,0,0,0,0,50,50,50,50,50,50,50,50,0,0,0,206,15,0,0,17,0,0,0,120,0,0
31636.0,0,0,0,0,0,0,0,0,50,50,50,50,50,50,50,50,0,0,0,206,15,0,0,38,0,0,0,120,0,0
31667.0,0,0,0,0,0,0,0,0,50,50,50,50,50,50,50,50,0,0,0,206,15,0,0,38,0,0,0,120,0,0
31697.0,0,0,0,0,0,0,0,0,50,50,50,50,50,50,50,50,0,0,0,165,23,0,0,38,0,0,0,0,0,0
31727.0,0,0,0,0,0,0,0,0,50,50,50,50,50,50,50,50,0,0,0,165,23,0,0,38,0,0,0,0,0,0
31757.0,0,0,0,0,0,0,0,0,50,50,50,50,50,50,50,50,0,0,0,162,0,0,0,38,0,0,0,0,0,1
31787.0,0,14,0,0,0,0,0,0,66,34,100,0,100,0,50,50,97,0,0,163,6,0,2,241,0,0,0,0,0,0
31817.0,0,14,0,0,0,0,0,0,66,34,100,0,100,0,50,50,97,0,0,168,0,0,2,241,0,0,0,0,0,0
31847.0,0,49,0,0,0,0,0,0,100,0,100,0,100,0,50,50,98,0,0,168,0,0,0,455,0,0,0,0,0,0
31877.0,0,49,0,0,0,0,0,0,100,0,100,0,100,0,50,50,98,0,0,182,0,0,0,455,0,0,0,0,0,0
31907.0,0,49,0,0,0,0,0,0,100,0,100,0,100,0,50,50,98,0,0,181,4,0,0,455,0,0,0,0,0,0
31937.0,0,79,0,0,0,0,0,0,100,0,100,0,100,0,50,50,71,0,0,168,0,0,1,645,0,0,0,0,0,0
31967.0,0,82,0,0,0,0,0,0,100,0,100,0,100,0,50,50,142,0,0,168,0,0,0,662,0,0,0,0,0,0
31996.0,0,82,0,0,0,0,0,0,100,0,100,0,100,0,50,50,142,0,0,162,6,0,0,662,0,0,0,0,1,0
32027.0,0,88,0,0,0,0,0,0,100,0,100,0,100,0,50,50,0,7,0,172,0,0,1,698,0,0,0,0,0,0
32057.0,0,88,0,0,0,0,0,0,100,0,100,0,100,0,50,50,0,7,0,170,0,0,1,698,0,0,0,0,0,0
32087.0,0,93,0,0,0,0,0,0,100,0,100,0,100,0,50,50,103,0,0,159,0,0,0,731,0,0,0,0,0,0
32117.0,0,93,0,0,0,0,0,0,100,0,100,0,100,0,50,50,103,0,0,156,5,0,0,731,0,0,0,0,0,0
32147.0,0,93,0,0,0,0,0,0,100,0,100,0,100,0,50,50,103,0,0,161,0,0,0,731,0,0,0,1,0,0
32177.0,0,89,0,0,0,0,0,0,100,0,100,0,100,0,50,50,109,0,0,161,0,0,0,707,0,0,0,1,0,0
32207.0,0,89,0,0,0,0,0,0,100,0,100,0,100,0,50,50,109,0,0,166,0,0,0,706,0,0,0,1,0,0
32236.0,0,89,0,0,0,0,0,0,100,0,100,0,100,0,50,50,109,0,0,166,0,0,0,706,0,0,0,1,0,0
32267.0,0,0,0,0,0,0,0,0,50,50,50,50,50,50,50,50,74,0,0,166,0,0,0,147,0,1,0,1,0,0
32296.0,0,0,0,0,0,0,0,0,50,50,50,50,50,50,50,50,74,0,0,177,0,0,0,109,0,1,0,0,0,0
32327.0,0,0,0,0,0,0,0,0,50,50,50,50,50,50,50,50,76,0,0,177,0,0,0,60,0,0,0,0,0,0
32357.0,0,0,0,0,0,0,0,0,50,50,50,50,50,50,50,50,55,0,0,183,0,0,0,24,0,0,0,0,0,1
32387.0,0,0,0,0,0,0,0,0,50,50,50,50,50,50,50,50,0,0,0,183,0,0,1,16,0,0,0,0,0,1
32417.0,0,0,0,0,0,0,0,0,50,50,50,50,50,50,50,50,0,0,0,175,0,0,1,8,0,0,0,0,0,0
32446.0,0,0,0,0,0,0,0,0,50,50,50,50,50,50,50,50,0,0,0,175,0,0,1,8,0,0,0,0,0,0
32476.0,0,0,0,0,0,0,0,0,50,50,50,50,50,50,50,50,2,0,0,175,0,0,0,8,0,0,0,0,0,0
32506.0,0,0,0,0,0,0,0,0,50,50,50,50,50,50,50,50,21,0,0,186,81,0,0,7,0,0,1,84,0,0
32537.0,0,0,0,0,0,0,0,0,50,50,50,50,50,50,50,50,9,0,0,186,81,0,0,2,0,0,1,84,0,0
32567.0,0,0,0,0,0,0,0,0,50,50,50,50,50,50,50,50,0,0,0,186,81,0,0,4,0,0,1,84,0,0
32597.0,0,0,0,0,0,27,0,0,33,67,100,0,50,50,100,0,0,0,0,180,0,0,0,4,0,0,0,323,0,0
32626.0,0,0,0,0,0,34,0,0,0,100,100,0,50,50,100,0,0,0,0,141,0,0,0,4,0,0,0,369,0,0
32657.0,0,0,0,0,0,49,0,0,0,100,100,0,50,50,100,0,0,0,0,198,90,0,0,2,0,0,0,467,0,0
32687.0,0,0,0,0,0,56,0,0,0,100,100,0,50,50,100,0,0,0,0,267,61,0,0,2,0,0,0,512,0,0
32717.0,0,0,0,0,0,56,0,0,0,100,100,0,50,50,100,0,0,0,0,267,61,0,0,3,0,0,0,512,0,0
32747.0,0,0,0,0,0,67,0,0,0,100,100,0,50,50,100,0,0,0,0,156,63,0,0,0,0,0,0,578,0,0
32776.0,0,0,0,0,0,67,0,0,0,100,100,0,50,50,100,0,0,0,0,204,54,0,0,0,0,0,0,582,0,0
32807.0,0,0,0,0,0,65,0,0,0,100,100,0,50,50,100,0,0,0,0,152,45,0,0,0,0,0,0,568,0,0
32837.0,0,0,0,0,0,45,0,0,0,100,100,0,50,50,100,0,0,0,0,205,88,0,0,0,0,0,0,440,0,0
32866.0,0,0,0,0,0,47,0,0,0,100,100,0,50,50,100,0,0,0,0,205,88,0,0,0,0,0,0,456,0,0
32897.0,0,0,0,0,0,26,0,0,33,67,100,0,50,50,100,0,0,0,0,134,52,0,0,1,0,0,0,321,0,0
32926.0,0,0,0,0,0,18,0,0,33,67,100,0,50,50,100,0,1,0,0,157,66,0,1,6,0,0,0,266,0,0
32957.0,0,0,0,0,0,0,0,0,50,50,50,50,50,50,50,50,0,0,0,143,34,0,0,9,0,0,0,70,0,0
32987.0,0,0,0,0,0,0,0,0,50,50,50,50,50,50,50,50,0,0,0,121,38,0,0,9,0,0,0,64,0,0
33017.0,0,0,0,0,0,0,0,0,50,50,50,50,50,50,50,50,0,0,0,149,29,0,0,32,0,0,0,17,0,0
33046.0,0,0,0,0,0,0,0,0,50,50,50,50,50,50,50,50,0,0,0,130,38,0,0,33,0,0,0,0,0,0
33076.0,0,4,0,0,0,0,0,0,66,34,100,0,100,0,50,50,0,0,0,139,22,0,0,175,2,0,0,0,0,1
33106.0,0,15,0,0,0,0,0,0,66,34,100,0,100,0,50,50,0,0,0,139,22,0,0,243,0,0,0,0,0,1
33137.0,0,15,0,0,0,0,0,0,66,34,100,0,100,0,50,50,0,0,0,124,57,0,0,243,0,0,0,0,0,0
33167.0,0,37,0,0,0,0,0,0,100,0,100,0,100,0,50,50,324,0,0,124,57,0,0,381,0,0,0,0,0,0
33197.0,0,49,0,0,0,0,0,0,100,0,100,0,100,0,50,50,21,0,0,124,57,0,0,457,0,0,0,0,0,0
33226.0,0,53,0,0,0,0,0,0,100,0,100,0,100,0,50,50,44,0,0,157,81,0,0,481,0,0,0,0,0,1
33257.0,0,53,0,0,0,0,0,0,100,0,100,0,100,0,50,50,44,0,0,211,142,0,0,481,0,0,0,0,0,0
33286.0,0,53,0,0,0,0,0,0,100,0,100,0,100,0,50,50,44,0,0,197,83,0,0,481,0,0,0,0,0,0
33316.0,0,66,0,0,0,0,0,0,100,0,100,0,100,0,50,50,56,34,0,84,21,0,0,562,0,1,0,0,0,0
33347.0,0,70,0,0,0,0,0,0,100,0,100,0,100,0,50,50,49,0,0,84,21,0,0,589,0,0,0,0,0,0
33376.0,0,70,0,0,0,0,0,0,100,0,100,0,100,0,50,50,49,0,0,0,32,0,0,589,0,0,0,0,0,0
33407.0,0,70,0,0,0,0,0,0,100,0,100,0,100,0,50,50,49,0,0,0,32,0,0,589,0,0,0,0,0,0
33437.0,0,67,0,0,0,0,0,0,100,0,100,0,100,0,50,50,36,0,0,0,32,0,0,570,0,0,0,0,0,0
33467.0,0,67,0,0,0,0,0,0,100,0,100,0,100,0,50,50,36,0,0,113,0,0,0,570,0,0,0,0,0,0
33497.0,0,17,0,0,0,0,0,0,66,34,100,0,100,0,50,50,117,0,0,113,0,0,0,257,0,0,0,0,0,0
33526.0,0,0,0,0,0,0,0,0,50,50,50,50,50,50,50,50,134,0,0,113,0,0,1,140,1,0,0,0,0,0
33557.0,0,0,0,0,0,0,0,0,50,50,50,50,50,50,50,50,131,0,0,39,0,0,0,97,0,0,0,0,0,0
33587.0,0,0,0,0,0,0,0,0,50,50,50,50,50,50,50,50,114,0,0,133,7,0,0,27,0,0,0,1,0,0
33617.0,0,0,0,0,0,0,0,0,50,50,50,50,50,50,50,50,114,0,0,133,7,0,0,27,0,0,0,1,0,0
33647.0,0,0,0,0,0,0,0,0,50,50,50,50,50,50,50,50,114,0,0,118,37,0,0,27,0,0,0,0,0,0
33676.0,0,0,0,0,0,0,0,0,50,50,50,50,50,50,50,50,114,0,0,138,76,0,0,27,0,0,0,0,0,0
33707.0,0,0,0,0,0,0,0,0,50,50,50,50,50,50,50,50,105,0,0,138,76,0,0,10,0,0,0,0,0,0
33737.0,0,0,0,0,0,0,0,0,50,50,50,50,50,50,50,50,76,0,0,85,30,0,1,9,0,0,0,0,0,0
33767.0,0,0,0,0,0,0,0,0,50,50,50,50,50,50,50,50,82,0,0,85,30,0,0,3,0,1,0,0,0,0
33797.0,0,0,0,0,0,0,0,0,50,50,50,50,50,50,50,50,82,0,0,138,34,0,0,3,0,1,0,0,0,0
33826.0,0,0,0,0,0,0,0,0,50,50,50,50,50,50,50,50,100,0,0,138,34,0,2,2,0,0,0,0,0,0
33857.0,0,0,0,0,0,0,0,0,50,50,50,50,50,50,50,50,111,0,0,146,55,0,1,1,0,0,0,0,0,0
33886.0,0,0,0,0,0,0,0,0,50,50,50,50,50,50,50,50,79,0,0,108,46,0,1,1,0,0,1,1,1,0
33917.0,0,0,0,0,0,0,0,0,50,50,50,50,50,50,50,50,48,0,0,117,38,0,0,0,0,0,0,0,0,0
33946.0,0,0,0,0,0,0,0,0,50,50,50,50,50,50,50,50,82,5,0,118,40,0,0,0,0,0,0,0,0,0
33977.0,0,0,0,0,0,0,0,0,50,50,50,50,50,50,50,50,62,2,0,126,42,0,1,1,0,0,1,0,0,0
34007.0,0,0,0,0,0,0,0,0,50,50,50,50,50,50,50,50,62,2,0,121,39,0,1,1,0,0,0,0,0,0
34037.0,0,0,0,0,0,0,0,0,50,50,50,50,50,50,50,50,62,2,0,121,39,0,1,1,0,0,0,0,0,0
34067.0,0,0,0,0,0,0,0,0,50,50,50,50,50,50,50,50,62,2,0,121,39,0,1,1,0,0,0,0,0,0
34097.0,0,0,0,0,0,0,0,0,50,50,50,50,50,50,50,50,296,0,0,121,39,0,0,6,0,0,0,0,0,0
34126.0,0,0,0,0,0,0,0,0,50,50,50,50,50,50,50,50,296,0,0,134,51,0,0,6,0,0,0,0,0,0
34157.0,0,0,0,0,0,0,0,0,50,50,50,50,50,50,50,50,296,0,0,130,42,0,0,6,0,0,0,0,0,0
34187.0,0,0,0,0,0,0,0,0,50,50,50,50,50,50,50,50,142,0,0,126,42,0,0,0,0,1,0,0,0,0
34217.0,0,0,0,0,0,0,0,0,50,50,50,50,50,50,50,50,56,0,0,126,42,0,0,0,0,0,0,0,0,0
34247.0,0,0,0,0,0,0,0,0,50,50,50,50,50,50,50,50,22,59,0,125,41,0,0,0,0,4,0,0,0,0
34277.0,0,0,0,0,0,0,0,0,50,50,50,50,50,50,50,50,22,59,0,124,36,0,0,0,0,4,0,0,0,0
34307.0,0,0,0,0,0,0,0,0,50,50,50,50,50,50,50,50,22,59,0,125,36,0,0,0,0,4,0,0,0,0
34337.0,0,0,0,0,0,0,0,0,50,50,50,50,50,50,50,50,22,59,0,127,35,0,0,0,0,4,0,0,0,0
34366.0,0,0,0,0,0,0,0,0,50,50,50,50,50,50,50,50,22,59,0,123,35,0,0,0,0,4,0,0,0,0
34396.0,0,0,0,0,0,0,0,0,50,50,50,50,50,50,50,50,14,0,0,123,35,0,0,0,0,12,0,0,0,0
34427.0,0,0,0,0,0,0,0,0,50,50,50,50,50,50,50,50,0,0,0,127,45,0,0,0,2,18,0,0,1,0
34457.0,0,0,0,0,0,0,0,0,50,50,50,50,50,50,50,50,63,0,0,127,45,0,4,0,2,42,0,0,1,0
34487.0,0,0,0,0,0,0,0,0,50,50,50,50,50,50,50,50,0,16,0,127,45,0,0,0,0,71,0,0,1,0
34517.0,0,0,0,0,0,0,0,0,50,50,50,50,50,50,50,50,48,0,0,127,45,0,0,0,0,106,0,0,1,0
34547.0,0,0,0,0,0,0,0,0,50,50,50,50,50,50,50,50,48,0,0,135,37,0,0,0,0,106,0,0,0,0
34577.0,0,0,0,29,0,0,0,0,100,0,0,100,0,100,50,50,12,0,0,135,37,0,0,0,0,268,0,0,0,0
34606.0,0,0,0,29,0,0,0,0,100,0,0,100,0,100,50,50,12,0,0,127,31,0,0,0,0,268,1,0,0,0
34636.0,0,0,0,29,0,0,0,0,100,0,0,100,0,100,50,50,12,0,0,130,39,0,0,0,0,268,0,1,0,0
34667.0,0,0,0,67,0,0,0,0,100,0,0,100,0,100,50,50,31,11,0,130,39,0,2,1,2,452,0,1,0,0
34697.0,0,0,0,67,0,0,0,0,100,0,0,100,0,100,50,50,31,11,0,129,44,0,2,1,2,452,0,0,0,0
34727.0,0,0,0,67,0,0,0,0,100,0,0,100,0,100,50,50,31,11,0,129,44,0,2,1,2,452,0,0,0,0
34757.0,0,0,0,76,0,0,0,0,100,0,0,100,0,100,50,50,0,4,0,129,44,0,0,1,0,498,0,0,0,0
34787.0,0,0,0,76,0,0,0,0,100,0,0,100,0,100,50,50,0,4,0,118,35,0,0,1,0,498,0,0,0,0
34817.0,0,0,0,78,0,0,0,0,100,0,0,100,0,100,50,50,0,0,0,118,35,0,0,0,0,507,0,0,0,0
34847.0,0,0,0,74,0,0,0,0,100,0,0,100,0,100,50,50,0,0,0,122,34,0,0,0,0,487,0,1,0,0
34877.0,0,0,0,73,0,0,0,0,100,0,0,100,0,100,50,50,0,0,0,122,34,0,0,0,0,486,0,1,0,0
34907.0,0,0,0,55,0,0,0,0,100,0,0,100,0,100,50,50,0,0,0,128,40,0,0,3,0,393,0,0,0,0
34937.0,0,0,0,28,0,0,0,0,100,0,0,100,0,100,50,50,24,0,0,128,40,0,0,20,0,263,0,0,0,0
34967.0,0,0,0,20,0,0,0,0,100,0,0,100,0,100,50,50,14,0,0,151,36,0,0,38,0,222,0,0,0,0
34997.0,0,2,0,0,0,0,0,0,66,34,100,0,100,0,50,50,17,0,0,151,36,0,0,164,0,114,0,0,0,0
35027.0,0,2,0,0,0,0,0,0,66,34,100,0,100,0,50,50,17,0,0,151,36,0,0,164,0,114,0,0,0,0
35056.0,0,36,0,0,0,0,0,0,100,0,100,0,100,0,50,50,25,0,0,151,36,0,1,374,0,41,0,0,0,0
35087.0,0,36,0,0,0,0,0,0,100,0,100,0,100,0,50,50,25,0,0,127,48,0,1,374,0,41,0,0,0,0
35117.0,0,36,0,0,0,0,0,0,100,0,100,0,100,0,50,50,25,0,0,133,45,0,1,374,0,41,0,1,0,0
35147.0,0,49,0,0,0,0,0,0,100,0,100,0,100,0,50,50,59,0,0,133,45,0,0,459,0,16,0,1,0,0
35177.0,0,49,0,0,0,0,0,0,100,0,100,0,100,0,50,50,59,0,0,129,39,0,0,459,0,16,0,2,0,0
35207.0,0,58,0,0,0,0,0,0,100,0,100,0,100,0,50,50,66,12,0,134,37,0,0,513,0,7,1,0,0,0
35236.0,0,61,0,0,0,0,0,0,100,0,100,0,100,0,50,50,44,0,0,132,41,0,1,532,0,4,0,0,0,0
35266.0,0,61,0,0,0,0,0,0,100,0,100,0,100,0,50,50,44,0,0,127,35,0,1,532,0,4,0,0,0,0
35297.0,0,61,0,0,0,0,0,0,100,0,100,0,100,0,50,50,44,0,0,127,31,0,1,532,0,4,0,0,0,0
35327.0,0,61,0,0,0,0,0,0,100,0,100,0,100,0,50,50,44,0,0,127,31,0,1,532,0,4,0,0,0,0
35356.0,0,64,0,0,0,0,0,0,100,0,100,0,100,0,50,50,69,59,0,129,31,0,0,554,0,3,1,0,0,0
35386.0,0,64,0,0,0,0,0,0,100,0,100,0,100,0,50,50,69,59,0,127,27,0,0,554,0,3,0,0,0,0
35417.0,0,64,0,0,0,0,0,0,100,0,100,0,100,0,50,50,78,43,0,127,30,0,1,554,0,6,1,0,0,0
35447.0,0,64,0,0,0,0,0,0,100,0,100,0,100,0,50,50,78,43,0,127,30,0,1,554,0,6,0,0,0,0
35477.0,0,64,0,0,0,0,0,0,100,0,100,0,100,0,50,50,78,43,0,127,30,0,1,554,0,6,0,0,0,0
35507.0,0,24,0,0,0,0,0,0,66,34,100,0,100,0,50,50,60,109,0,131,39,0,0,304,0,7,1,0,0,0
35536.0,0,4,0,0,0,0,0,0,66,34,100,0,100,0,50,50,60,117,0,131,42,0,0,179,1,11,0,0,0,0
35566.0,0,4,0,0,0,0,0,0,66,34,100,0,100,0,50,50,60,117,0,131,42,0,0,179,1,11,0,0,0,0
35597.0,0,0,0,4,0,0,0,0,66,34,0,100,0,100,50,50,89,30,0,131,42,0,1,12,0,144,0,0,0,0
35626.0,0,0,0,14,0,0,0,0,100,0,0,100,0,100,50,50,55,20,0,131,42,0,0,11,0,194,0,0,0,0
35657.0,0,0,0,14,0,0,0,0,100,0,0,100,0,100,50,50,55,20,0,127,37,0,0,11,0,194,0,0,0,0
35686.0,0,0,0,47,0,0,0,0,100,0,0,100,0,100,50,50,0,0,0,127,37,0,2,8,0,355,0,0,0,0
35717.0,0,0,0,69,0,0,0,0,100,0,0,100,0,100,50,50,0,0,0,127,37,0,0,6,0,462,1,0,0,0
35746.0,0,0,0,78,0,0,0,0,100,0,0,100,0,100,50,50,16,0,0,127,37,0,0,5,0,510,1,0,0,0
35777.0,0,0,0,83,0,0,0,0,100,0,0,100,0,100,50,50,0,0,0,127,33,0,0,2,0,531,0,0,0,0
35806.0,0,0,0,85,0,0,0,0,100,0,0,100,0,100,50,50,2,98,0,124,35,0,0,4,0,545,0,0,0,0
35836.0,0,0,0,86,0,0,0,0,100,0,0,100,0,100,50,50,0,0,0,128,36,0,0,3,0,549,0,0,0,0
35867.0,0,0,0,87,0,0,0,0,100,0,0,100,0,100,50,50,0,0,0,128,36,0,1,0,0,552,0,0,0,0
35897.0,0,0,0,87,0,0,0,0,100,0,0,100,0,100,50,50,85,0,0,125,36,0,0,0,0,554,2,0,0,0
35927.0,0,0,0,87,0,0,0,0,100,0,0,100,0,100,50,50,0,0,0,123,37,0,0,0,0,552,0,0,0,0
35957.0,0,0,0,87,0,0,0,0,100,0,0,100,0,100,50,50,0,0,0,121,35,0,0,0,0,552,0,0,0,0
35986.0,0,0,0,87,0,0,0,0,100,0,0,100,0,100,50,50,0,0,0,130,33,0,0,0,0,552,0,0,0,0
36017.0,0,0,0,87,0,0,0,0,100,0,0,100,0,100,50,50,0,0,0,130,33,0,0,0,0,552,0,0,0,0
36047.0,0,0,0,86,0,0,0,0,100,0,0,100,0,100,50,50,156,2,0,124,34,0,0,0,0,548,0,2,0,0
36076.0,0,0,0,86,0,0,0,0,100,0,0,100,0,100,50,50,156,2,0,124,38,0,0,0,0,548,0,0,0,0
36107.0,0,0,0,86,0,0,0,0,100,0,0,100,0,100,50,50,156,2,0,124,39,0,0,0,0,548,0,0,0,0
36136.0,0,0,0,84,0,0,0,0,100,0,0,100,0,100,50,50,151,21,0,124,39,0,0,1,0,538,0,0,0,0
36167.0,0,0,0,84,0,0,0,0,100,0,0,100,0,100,50,50,151,21,0,123,37,0,0,1,0,538,0,0,1,0
36197.0,0,0,0,84,0,0,0,0,100,0,0,100,0,100,50,50,151,21,0,126,38,0,0,1,0,538,0,0,0,0
36227.0,0,0,0,72,0,0,0,0,100,0,0,100,0,100,50,50,38,0,0,126,38,0,1,0,0,478,0,0,0,0
36257.0,0,0,0,69,0,0,0,0,100,0,0,100,0,100,50,50,0,0,0,124,38,0,0,0,0,462,0,0,0,0
36286.0,0,0,0,69,0,0,0,0,100,0,0,100,0,100,50,50,0,0,0,124,38,0,0,0,0,462,0,0,0,0
36317.0,0,0,0,43,0,0,0,0,100,0,0,100,0,100,50,50,80,95,0,124,37,0,0,0,0,336,0,0,1,0
36347.0,0,0,0,31,0,0,0,0,100,0,0,100,0,100,50,50,51,0,0,124,37,0,0,1,0,277,0,0,1,0
36377.0,0,0,0,0,0,0,0,0,66,34,0,100,0,100,50,50,158,79,0,125,36,0,0,0,0,123,0,0,0,1
36407.0,0,0,0,0,0,0,0,0,50,50,50,50,50,50,50,50,158,79,0,125,36,0,0,0,0,113,0,0,0,1
36436.0,0,0,0,0,0,0,0,0,50,50,50,50,50,50,50,50,158,79,0,125,36,0,0,0,0,110,0,0,0,1
36467.0,0,0,0,0,0,0,0,0,50,50,50,50,50,50,50,50,41,0,0,122,38,0,0,2,0,34,0,2,0,0
36496.0,0,0,0,0,0,0,0,0,50,50,50,50,50,50,50,50,9,29,0,122,38,0,2,0,0,37,0,2,0,0
36526.0,0,0,0,0,0,0,0,0,50,50,50,50,50,50,50,50,0,36,0,122,38,0,0,1,0,24,0,2,0,0
36557.0,0,0,0,0,0,0,0,0,50,50,50,50,50,50,50,50,0,36,0,122,38,0,0,1,0,24,0,0,0,0
36586.0,0,0,0,0,0,0,0,0,50,50,50,50,50,50,50,50,0,36,0,127,37,0,0,1,0,24,0,0,0,0
36617.0,0,0,0,0,0,0,0,0,50,50,50,50,50,50,50,50,0,45,0,123,35,0,0,4,1,22,0,0,0,0
36647.0,0,0,0,0,0,0,0,0,50,50,50,50,50,50,50,50,113,24,0,126,34,0,2,8,1,22,0,0,0,0
36677.0,0,0,0,0,0,0,0,0,50,50,50,50,50,50,50,50,113,24,0,124,36,0,2,8,1,22,0,0,0,0
36707.0,0,0,0,0,0,0,0,0,50,50,50,50,50,50,50,50,0,55,0,125,38,0,0,6,0,22,0,0,0,0
36737.0,0,0,0,0,0,0,0,0,50,50,50,50,50,50,50,50,0,40,0,119,42,0,1,8,0,22,0,0,0,0
36766.0,0,0,0,0,0,0,0,0,50,50,50,50,50,50,50,50,0,50,0,121,39,0,0,7,0,24,0,0,0,0
36797.0,0,0,0,0,0,0,0,0,50,50,50,50,50,50,50,50,0,29,0,126,38,0,2,7,0,27,0,0,0,0
36827.0,0,0,0,0,0,0,0,0,50,50,50,50,50,50,50,50,0,35,0,127,38,0,0,6,0,33,0,0,0,0
36857.0,0,0,0,0,0,0,0,0,50,50,50,50,50,50,50,50,0,59,0,129,37,0,0,8,0,49,0,0,0,0
36887.0,0,0,0,0,0,0,0,0,50,50,50,50,50,50,50,50,32,87,0,130,42,0,0,14,0,114,0,0,0,0
36917.0,0,0,0,0,0,0,0,0,50,50,50,50,50,50,50,50,32,87,0,127,36,0,0,14,0,114,0,0,0,0
36947.0,0,0,0,0,0,0,0,0,50,50,50,50,50,50,50,50,32,87,0,127,36,0,0,14,0,114,0,0,0,0
36977.0,0,0,0,49,0,0,0,0,100,0,0,100,0,100,50,50,0,15,0,135,42,0,0,7,0,365,0,0,0,0
37006.0,0,0,0,67,0,0,0,0,100,0,0,100,0,100,50,50,0,0,0,130,36,0,0,0,0,452,0,0,0,0
37037.0,0,0,0,67,0,0,0,0,100,0,0,100,0,100,50,50,0,0,0,130,36,0,0,0,0,452,0,0,0,0
37067.0,0,0,0,83,0,0,0,0,100,0,0,100,0,100,50,50,0,0,0,130,36,0,1,0,0,534,0,0,0,0
37097.0,0,0,0,83,0,0,0,0,100,0,0,100,0,100,50,50,0,0,0,127,40,0,1,0,0,534,0,0,0,0
37127.0,0,0,0,90,0,0,0,0,100,0,0,100,0,100,50,50,43,0,0,127,40,0,0,0,2,566,0,0,0,0
37156.0,0,0,0,90,0,0,0,0,100,0,0,100,0,100,50,50,0,0,0,132,42,0,0,0,0,568,0,0,0,0
37186.0,0,0,0,90,0,0,0,0,100,0,0,100,0,100,50,50,0,0,0,132,42,0,1,0,0,568,0,0,0,0
37217.0,0,0,0,90,0,0,0,0,100,0,0,100,0,100,50,50,0,0,0,127,42,0,1,0,0,568,1,0,0,0
37247.0,0,0,0,89,0,0,0,0,100,0,0,100,0,100,50,50,0,0,0,129,43,0,0,0,0,562,0,0,0,0
37277.0,0,0,0,88,0,0,0,0,100,0,0,100,0,100,50,50,57,0,0,130,40,0,0,0,0,557,0,0,0,0
37307.0,0,0,0,88,0,0,0,0,100,0,0,100,0,100,50,50,0,0,0,133,43,0,0,0,0,557,0,0,0,0
37337.0,0,0,0,88,0,0,0,0,100,0,0,100,0,100,50,50,0,0,0,133,43,0,0,0,0,557,0,0,0,0
37366.0,0,0,0,86,0,0,0,0,100,0,0,100,0,100,50,50,0,0,0,132,45,0,0,0,0,546,0,0,0,0
37397.0,0,0,0,86,0,0,0,0,100,0,0,100,0,100,50,50,0,0,0,132,45,0,0,0,0,546,0,0,0,0
37427.0,0,0,0,86,0,0,0,0,100,0,0,100,0,100,50,50,0,0,0,132,45,0,0,0,0,546,0,0,0,0
37457.0,0,0,0,78,0,0,0,0,100,0,0,100,0,100,50,50,0,0,0,132,45,0,0,0,1,507,0,0,0,0
37487.0,0,0,0,78,0,0,0,0,100,0,0,100,0,100,50,50,0,0,0,140,47,0,0,0,1,507,1,0,0,0
37517.0,0,0,0,53,0,0,0,0,100,0,0,100,0,100,50,50,0,0,0,144,49,0,0,0,19,384,1,0,0,0
37547.0,0,0,0,51,0,0,0,0,100,0,0,100,0,100,50,50,0,0,0,129,43,0,0,0,20,376,0,0,0,0
37577.0,0,0,7,24,0,0,0,0,100,0,19,81,19,81,50,50,0,0,0,129,43,0,0,0,192,242,0,0,0,0
37607.0,0,0,7,24,0,0,0,0,100,0,19,81,19,81,50,50,0,0,0,124,42,0,0,0,192,242,0,0,0,1
37637.0,0,0,43,0,0,0,0,0,100,0,100,0,100,0,50,50,0,0,0,124,38,0,0,0,417,119,0,1,0,0
37666.0,0,0,43,0,0,0,0,0,100,0,100,0,100,0,50,50,0,0,0,127,40,0,0,0,417,119,0,1,1,0
37697.0,0,0,43,0,0,0,0,0,100,0,100,0,100,0,50,50,0,0,0,134,43,0,0,0,417,119,0,0,0,0
37727.0,0,0,72,0,0,0,0,0,100,0,100,0,100,0,50,50,0,8,0,132,37,0,1,0,598,27,0,0,0,0
37757.0,0,0,76,0,0,0,0,0,100,0,100,0,100,0,50,50,0,6,0,132,37,0,0,0,622,18,0,0,0,0
37786.0,0,0,80,0,0,0,0,0,100,0,100,0,100,0,50,50,0,12,0,125,44,0,0,0,629,11,0,0,0,0
37817.0,0,0,80,0,0,0,0,0,100,0,100,0,100,0,50,50,0,12,0,125,44,0,0,0,629,11,0,0,0,0
37847.0,0,0,80,0,0,0,0,0,100,0,100,0,100,0,50,50,0,48,0,125,44,0,0,0,632,10,0,0,0,0
37877.0,0,0,80,0,0,0,0,0,100,0,100,0,100,0,50,50,0,5,0,128,46,0,0,0,630,8,0,0,0,0
37906.0,0,0,80,0,0,0,0,0,100,0,100,0,100,0,50,50,0,5,0,128,46,0,0,0,630,8,0,0,0,0
37937.0,0,0,80,0,0,0,0,0,100,0,100,0,100,0,50,50,0,5,0,128,46,0,0,0,630,8,0,0,0,0
37967.0,0,0,80,0,0,0,0,0,100,0,100,0,100,0,50,50,0,5,0,128,46,0,0,0,630,8,0,0,0,0
37997.0,0,0,77,0,0,0,0,0,100,0,100,0,100,0,50,50,0,0,0,124,41,0,0,0,624,14,0,0,0,0
38027.0,0,0,77,0,0,0,0,0,100,0,100,0,100,0,50,50,0,0,0,124,41,0,0,0,624,14,0,0,0,0
38057.0,0,0,75,0,0,0,0,0,100,0,100,0,100,0,50,50,1,0,0,127,44,0,0,0,616,15,0,0,0,0
38087.0,0,0,75,0,0,0,0,0,100,0,100,0,100,0,50,50,1,0,0,127,43,0,0,0,616,15,0,0,0,1
38116.0,0,0,65,0,0,0,0,0,100,0,100,0,100,0,50,50,0,0,0,127,43,0,1,0,549,21,0,0,0,1
38146.0,0,0,65,0,0,0,0,0,100,0,100,0,100,0,50,50,0,0,0,127,43,0,1,0,549,21,0,0,0,1
38177.0,0,0,21,0,0,0,0,0,100,0,100,0,100,0,50,50,8,9,0,127,43,0,0,0,278,78,0,0,0,1
38207.0,0,0,0,7,0,0,0,0,66,34,0,100,0,100,50,50,0,0,0,125,42,0,0,0,121,157,0,0,0,1
38237.0,0,0,0,19,0,0,0,0,100,0,0,100,0,100,50,50,0,17,0,126,39,0,0,0,33,217,0,1,0,0
38267.0,0,0,0,29,0,0,0,0,100,0,0,100,0,100,50,50,0,16,0,126,39,0,0,0,13,264,0,1,0,0
38296.0,0,0,0,38,0,0,0,0,100,0,0,100,0,100,50,50,0,0,0,133,44,0,0,0,9,309,0,0,0,0
38327.0,0,0,0,56,0,0,0,0,100,0,0,100,0,100,50,50,70,0,0,133,40,0,0,0,4,401,0,1,0,0
38357.0,0,0,0,56,0,0,0,0,100,0,0,100,0,100,50,50,70,0,0,129,37,0,0,0,4,401,0,0,0,0
38386.0,0,0,0,56,0,0,0,0,100,0,0,100,0,100,50,50,70,0,0,125,45,0,0,0,4,401,0,0,0,0
38416.0,0,0,0,78,0,0,0,0,100,0,0,100,0,100,50,50,1,23,0,118,49,0,0,0,0,511,0,0,0,0
38446.0,0,0,0,78,0,0,0,0,100,0,0,100,0,100,50,50,1,23,0,126,48,0,0,0,0,511,0,0,0,0
38477.0,0,0,0,78,0,0,0,0,100,0,0,100,0,100,50,50,1,23,0,126,48,0,0,0,0,511,0,0,0,0
38507.0,0,0,0,77,0,0,0,0,100,0,0,100,0,100,50,50,0,14,0,131,44,0,0,0,0,504,0,0,0,0
38537.0,0,0,0,77,0,0,0,0,100,0,0,100,0,100,50,50,0,14,0,130,47,0,0,0,0,504,0,0,0,0
38567.0,0,0,0,77,0,0,0,0,100,0,0,100,0,100,50,50,0,0,0,129,45,0,1,1,0,503,1,0,0,0
38596.0,0,0,0,77,0,0,0,0,100,0,0,100,0,100,50,50,0,0,0,129,45,0,1,1,0,503,1,0,0,0
38626.0,0,0,0,75,0,0,0,0,100,0,0,100,0,100,50,50,11,0,0,120,50,0,0,0,0,496,0,0,0,0
38656.0,0,0,0,75,0,0,0,0,100,0,0,100,0,100,50,50,0,0,0,120,50,0,0,0,0,495,0,0,0,0
38687.0,0,0,0,74,0,0,0,0,100,0,0,100,0,100,50,50,2,18,0,130,45,0,1,0,0,491,1,0,0,0
38717.0,0,0,0,74,0,0,0,0,100,0,0,100,0,100,50,50,2,18,0,132,41,0,1,0,0,491,0,0,0,1
38746.0,0,0,0,74,0,0,0,0,100,0,0,100,0,100,50,50,2,18,0,131,43,0,1,0,0,491,0,0,0,2
38777.0,0,0,0,73,0,0,0,0,100,0,0,100,0,100,50,50,0,0,0,128,46,0,0,1,0,482,0,0,0,0
38807.0,0,0,0,73,0,0,0,0,100,0,0,100,0,100,50,50,34,9,0,128,46,0,0,0,0,483,0,0,0,0
38836.0,0,0,0,73,0,0,0,0,100,0,0,100,0,100,50,50,0,2,0,123,43,0,0,0,0,484,0,0,0,2
38866.0,0,0,0,75,0,0,0,0,100,0,0,100,0,100,50,50,31,44,0,123,43,0,0,0,0,492,0,0,0,2
38896.0,0,0,0,75,0,0,0,0,100,0,0,100,0,100,50,50,31,44,0,124,45,0,0,0,0,492,0,0,0,0
38927.0,0,0,0,75,0,0,0,0,100,0,0,100,0,100,50,50,31,44,0,128,44,0,0,0,0,492,0,0,0,0
38957.0,0,0,0,68,0,0,0,0,100,0,0,100,0,100,50,50,80,7,0,127,42,0,2,0,0,459,0,0,0,0
38987.0,0,0,0,41,0,0,0,0,100,0,0,100,0,100,50,50,0,23,0,125,44,0,0,0,0,327,0,0,0,0
39017.0,0,0,0,14,0,0,0,0,100,0,0,100,0,100,50,50,9,68,0,125,44,0,0,0,0,192,0,0,0,0
39046.0,0,0,0,0,0,0,0,0,50,50,50,50,50,50,50,50,41,63,0,125,47,0,0,0,0,106,0,0,0,0
39076.0,0,0,0,0,0,0,0,0,50,50,50,50,50,50,50,50,139,0,0,125,47,0,0,0,0,27,0,0,0,0
39107.0,0,0,0,0,0,0,0,0,50,50,50,50,50,50,50,50,0,52,0,125,47,0,1,0,0,15,0,0,0,0
39137.0,0,0,0,0,0,0,0,0,50,50,50,50,50,50,50,50,0,52,0,125,47,0,1,0,0,15,0,0,0,0
39167.0,0,0,0,0,0,0,0,0,50,50,50,50,50,50,50,50,169,0,0,127,45,0,0,0,0,9,0,0,0,0
39196.0,0,0,0,0,0,0,0,0,50,50,50,50,50,50,50,50,169,0,0,127,42,0,0,0,0,9,0,0,0,0
39226.0,0,0,0,0,0,0,0,0,50,50,50,50,50,50,50,50,28,22,0,128,46,0,0,0,0,3,0,0,0,0
39257.0,0,0,0,0,0,0,0,0,50,50,50,50,50,50,50,50,64,11,0,128,46,0,0,0,0,3,0,0,0,0
39286.0,0,0,0,0,0,0,0,0,50,50,50,50,50,50,50,50,18,49,0,128,46,0,0,0,0,4,0,0,0,0
39316.0,0,0,0,0,0,0,0,0,50,50,50,50,50,50,50,50,4,3,0,123,45,0,0,0,0,2,0,0,0,0
39346.0,0,0,0,0,0,0,0,0,50,50,50,50,50,50,50,50,4,3,0,124,42,0,0,0,0,2,0,0,0,0
39377.0,0,0,0,0,0,0,0,0,50,50,50,50,50,50,50,50,17,0,0,126,48,0,0,0,0,2,0,0,0,0
39407.0,0,0,0,0,0,0,0,0,50,50,50,50,50,50,50,50,17,0,0,126,48,0,0,0,0,2,0,0,0,0
39437.0,0,0,0,0,0,0,0,0,50,50,50,50,50,50,50,50,0,16,0,126,48,0,0,0,0,2,0,0,0,0
39467.0,0,0,0,0,0,0,0,0,50,50,50,50,50,50,50,50,21,2,0,126,47,0,0,0,0,3,0,0,0,0
39497.0,0,0,0,0,0,0,0,0,50,50,50,50,50,50,50,50,21,2,0,123,47,0,0,0,0,3,0,0,0,0
39527.0,0,0,0,0,0,0,0,0,50,50,50,50,50,50,50,50,164,4,0,127,45,0,0,0,0,31,0,0,0,0
39557.0,0,0,0,0,0,0,0,0,50,50,50,50,50,50,50,50,61,45,0,127,45,0,0,0,0,92,0,0,0,0
39587.0,0,0,0,23,0,0,0,0,100,0,0,100,0,100,50,50,47,24,0,127,45,0,0,0,0,236,0,0,0,0
39617.0,0,0,0,23,0,0,0,0,100,0,0,100,0,100,50,50,47,24,0,127,45,0,0,0,0,236,0,0,0,0
39647.0,0,0,0,56,0,0,0,0,100,0,0,100,0,100,50,50,0,0,0,126,44,0,0,0,0,398,0,0,0,0
39677.0,0,0,0,61,0,0,0,0,100,0,0,100,0,100,50,50,94,0,0,127,44,0,0,0,0,426,0,0,0,0
39707.0,0,0,0,72,0,0,0,0,100,0,0,100,0,100,50,50,0,0,0,125,40,0,0,0,0,478,0,0,0,0
39737.0,0,0,0,75,0,0,0,0,100,0,0,100,0,100,50,50,0,0,0,130,39,0,0,0,0,493,0,0,0,0
39766.0,0,0,0,76,0,0,0,0,100,0,0,100,0,100,50,50,0,0,0,130,39,0,2,0,0,497,0,0,0,0
39797.0,0,0,0,75,0,0,0,0,100,0,0,100,0,100,50,50,63,0,0,129,41,0,0,0,0,492,0,0,1,0
39827.0,0,0,0,75,0,0,0,0,100,0,0,100,0,100,50,50,0,0,0,128,43,0,0,0,0,493,0,0,0,1
39857.0,0,0,0,75,0,0,0,0,100,0,0,100,0,100,50,50,0,0,0,125,42,0,0,0,0,496,2,0,0,0
39887.0,0,0,0,74,0,0,0,0,100,0,0,100,0,100,50,50,11,0,0,127,45,0,0,0,0,488,0,0,0,0
39917.0,0,0,0,74,0,0,0,0,100,0,0,100,0,100,50,50,0,0,0,127,45,0,0,0,0,491,0,0,0,0
